Time,header.seq,header.stamp.secs,header.stamp.nsecs,header.frame_id,imu.header.seq,imu.header.stamp.secs,imu.header.stamp.nsecs,imu.header.frame_id,imu.orientation.x,imu.orientation.y,imu.orientation.z,imu.orientation.w,imu.orientation_covariance,imu.angular_velocity.x,imu.angular_velocity.y,imu.angular_velocity.z,imu.angular_velocity_covariance,imu.linear_acceleration.x,imu.linear_acceleration.y,imu.linear_acceleration.z,imu.linear_acceleration_covariance,mag_field.header.seq,mag_field.header.stamp.secs,mag_field.header.stamp.nsecs,mag_field.header.frame_id,mag_field.magnetic_field.x,mag_field.magnetic_field.y,mag_field.magnetic_field.z,mag_field.magnetic_field_covariance,VNYMR
1679683297.2813284,13550,1679683297,273661613,IMU1_Frame,0,0,0,,0.05918480134824226,0.00037767223408854793,-0.9687323657738387,0.24094526381581813,"(0.0, 0.0, 0.0, 0.0, 0.0, 0.0, 0.0, 0.0, 0.0)",0.000274,0.000592,-0.00014,"(0.0, 0.0, 0.0, 0.0, 0.0, 0.0, 0.0, 0.0, 0.0)",1.11,-0.274,-9.772,"(0.0, 0.0, 0.0, 0.0, 0.0, 0.0, 0.0, 0.0, 0.0)",0,0,0,,-0.4964,0.2472,0.5133,"(0.0, 0.0, 0.0, 0.0, 0.0, 0.0, 0.0, 0.0, 0.0)","b'$VNYMR,-151.973,+006.595,+001.603,-00.4964,+00.2472,+00.5133,+01.110,-00.274,-09.772,+00.000274,+00.000592,-00.000149*6B\r\n'"
1679683297.3047926,13551,1679683297,297106266,IMU1_Frame,0,0,0,,0.05916790057101789,0.00037343969532252323,-0.9687332805530527,0.24094574334014007,"(0.0, 0.0, 0.0, 0.0, 0.0, 0.0, 0.0, 0.0, 0.0)",-0.000427,-2.3e-05,0.00052,"(0.0, 0.0, 0.0, 0.0, 0.0, 0.0, 0.0, 0.0, 0.0)",1.133,-0.254,-9.756,"(0.0, 0.0, 0.0, 0.0, 0.0, 0.0, 0.0, 0.0, 0.0)",0,0,0,,-0.4901,0.2471,0.5135,"(0.0, 0.0, 0.0, 0.0, 0.0, 0.0, 0.0, 0.0, 0.0)","b'$VNYMR,-151.973,+006.593,+001.603,-00.4901,+00.2471,+00.5135,+01.133,-00.254,-09.756,-00.000427,-00.000023,+00.000529*65\r\n'"
1679683297.3299327,13552,1679683297,322040081,IMU1_Frame,0,0,0,,0.05916790057101789,0.00037343969532252323,-0.9687332805530527,0.24094574334014007,"(0.0, 0.0, 0.0, 0.0, 0.0, 0.0, 0.0, 0.0, 0.0)",0.000194,0.001187,0.00069,"(0.0, 0.0, 0.0, 0.0, 0.0, 0.0, 0.0, 0.0, 0.0)",1.11,-0.25,-9.793,"(0.0, 0.0, 0.0, 0.0, 0.0, 0.0, 0.0, 0.0, 0.0)",0,0,0,,-0.4942,0.2516,0.5159,"(0.0, 0.0, 0.0, 0.0, 0.0, 0.0, 0.0, 0.0, 0.0)","b'$VNYMR,-151.973,+006.593,+001.603,-00.4942,+00.2516,+00.5159,+01.110,-00.250,-09.793,+00.000194,+00.001187,+00.000698*6E\r\n'"
1679683297.3546247,13553,1679683297,347027778,IMU1_Frame,0,0,0,,0.05915945017564654,0.00037132342589676903,-0.9687337378319997,0.2409459830747774,"(0.0, 0.0, 0.0, 0.0, 0.0, 0.0, 0.0, 0.0, 0.0)",0.000209,0.000916,-0.00024,"(0.0, 0.0, 0.0, 0.0, 0.0, 0.0, 0.0, 0.0, 0.0)",1.113,-0.267,-9.762,"(0.0, 0.0, 0.0, 0.0, 0.0, 0.0, 0.0, 0.0, 0.0)",0,0,0,,-0.4953,0.2494,0.5146,"(0.0, 0.0, 0.0, 0.0, 0.0, 0.0, 0.0, 0.0, 0.0)","b'$VNYMR,-151.973,+006.592,+001.603,-00.4953,+00.2494,+00.5146,+01.113,-00.267,-09.762,+00.000209,+00.000916,-00.000246*64\r\n'"
1679683297.379519,13554,1679683297,372049331,IMU1_Frame,0,0,0,,0.059161555988138145,0.00036235334727510553,-0.9687358436444914,0.24093701299615605,"(0.0, 0.0, 0.0, 0.0, 0.0, 0.0, 0.0, 0.0, 0.0)",-0.000483,0.000413,-0.00023,"(0.0, 0.0, 0.0, 0.0, 0.0, 0.0, 0.0, 0.0, 0.0)",1.113,-0.25,-9.792,"(0.0, 0.0, 0.0, 0.0, 0.0, 0.0, 0.0, 0.0, 0.0)",0,0,0,,-0.4964,0.2506,0.5133,"(0.0, 0.0, 0.0, 0.0, 0.0, 0.0, 0.0, 0.0, 0.0)","b'$VNYMR,-151.974,+006.592,+001.604,-00.4964,+00.2506,+00.5133,+01.113,-00.250,-09.792,-00.000483,+00.000413,-00.000230*68\r\n'"
1679683297.4078934,13555,1679683297,397216558,IMU1_Frame,0,0,0,,0.059157347523031895,0.0003797772225326828,-0.9687337345547049,0.24094649932919748,"(0.0, 0.0, 0.0, 0.0, 0.0, 0.0, 0.0, 0.0, 0.0)",-0.000495,7.3e-05,-7e-05,"(0.0, 0.0, 0.0, 0.0, 0.0, 0.0, 0.0, 0.0, 0.0)",1.137,-0.276,-9.777,"(0.0, 0.0, 0.0, 0.0, 0.0, 0.0, 0.0, 0.0, 0.0)",0,0,0,,-0.4933,0.2449,0.5147,"(0.0, 0.0, 0.0, 0.0, 0.0, 0.0, 0.0, 0.0, 0.0)","b'$VNYMR,-151.973,+006.592,+001.602,-00.4933,+00.2449,+00.5147,+01.137,-00.276,-09.777,-00.000495,+00.000073,-00.000073*6B\r\n'"
1679683297.432512,13556,1679683297,422172784,IMU1_Frame,0,0,0,,0.05916788749946626,0.00037550504444751505,-0.9687248693697883,0.24097955836397938,"(0.0, 0.0, 0.0, 0.0, 0.0, 0.0, 0.0, 0.0, 0.0)",0.00117,-0.000207,-0.00085,"(0.0, 0.0, 0.0, 0.0, 0.0, 0.0, 0.0, 0.0, 0.0)",1.13,-0.265,-9.764,"(0.0, 0.0, 0.0, 0.0, 0.0, 0.0, 0.0, 0.0, 0.0)",0,0,0,,-0.4911,0.246,0.5147,"(0.0, 0.0, 0.0, 0.0, 0.0, 0.0, 0.0, 0.0, 0.0)","b'$VNYMR,-151.969,+006.593,+001.603,-00.4911,+00.2460,+00.5147,+01.130,-00.265,-09.764,+00.001170,-00.000207,-00.000857*6C\r\n'"
1679683297.47798,13557,1679683297,447186708,IMU1_Frame,0,0,0,,0.059178443974815156,0.0003686514642036627,-0.9687265181837975,0.24097034845041423,"(0.0, 0.0, 0.0, 0.0, 0.0, 0.0, 0.0, 0.0, 0.0)",0.000694,0.000515,0.00026,"(0.0, 0.0, 0.0, 0.0, 0.0, 0.0, 0.0, 0.0, 0.0)",1.129,-0.266,-9.77,"(0.0, 0.0, 0.0, 0.0, 0.0, 0.0, 0.0, 0.0, 0.0)",0,0,0,,-0.4922,0.2482,0.5159,"(0.0, 0.0, 0.0, 0.0, 0.0, 0.0, 0.0, 0.0, 0.0)","b'$VNYMR,-151.970,+006.594,+001.604,-00.4922,+00.2482,+00.5159,+01.129,-00.266,-09.770,+00.000694,+00.000515,+00.000264*6B\r\n'"
1679683297.5221503,13558,1679683297,472109556,IMU1_Frame,0,0,0,,0.059184791440523986,0.00037922168843494523,-0.968726057509604,0.2409706250872747,"(0.0, 0.0, 0.0, 0.0, 0.0, 0.0, 0.0, 0.0, 0.0)",0.00034,0.00086,0.00143,"(0.0, 0.0, 0.0, 0.0, 0.0, 0.0, 0.0, 0.0, 0.0)",1.124,-0.255,-9.78,"(0.0, 0.0, 0.0, 0.0, 0.0, 0.0, 0.0, 0.0, 0.0)",0,0,0,,-0.4922,0.246,0.5134,"(0.0, 0.0, 0.0, 0.0, 0.0, 0.0, 0.0, 0.0, 0.0)","b'$VNYMR,-151.970,+006.595,+001.603,-00.4922,+00.2460,+00.5134,+01.124,-00.255,-09.780,+00.000340,+00.000860,+00.001434*69\r\n'"
1679683297.5222113,13559,1679683297,497025728,IMU1_Frame,0,0,0,,0.05918903950442554,0.0003977291084192834,-0.9687276960479034,0.2409629646311246,"(0.0, 0.0, 0.0, 0.0, 0.0, 0.0, 0.0, 0.0, 0.0)",-0.000335,-0.000239,0.00095,"(0.0, 0.0, 0.0, 0.0, 0.0, 0.0, 0.0, 0.0, 0.0)",1.121,-0.247,-9.773,"(0.0, 0.0, 0.0, 0.0, 0.0, 0.0, 0.0, 0.0, 0.0)",0,0,0,,-0.4965,0.245,0.5121,"(0.0, 0.0, 0.0, 0.0, 0.0, 0.0, 0.0, 0.0, 0.0)","b'$VNYMR,-151.971,+006.596,+001.601,-00.4965,+00.2450,+00.5121,+01.121,-00.247,-09.773,-00.000335,-00.000239,+00.000958*65\r\n'"
1679683297.5660093,13560,1679683297,522232055,IMU1_Frame,0,0,0,,0.059197489849016585,0.0003998455172304731,-0.9687272384411106,0.24096272496259122,"(0.0, 0.0, 0.0, 0.0, 0.0, 0.0, 0.0, 0.0, 0.0)",0.000114,0.000124,0.00038,"(0.0, 0.0, 0.0, 0.0, 0.0, 0.0, 0.0, 0.0, 0.0)",1.124,-0.247,-9.755,"(0.0, 0.0, 0.0, 0.0, 0.0, 0.0, 0.0, 0.0, 0.0)",0,0,0,,-0.4964,0.2472,0.5082,"(0.0, 0.0, 0.0, 0.0, 0.0, 0.0, 0.0, 0.0, 0.0)","b'$VNYMR,-151.971,+006.597,+001.601,-00.4964,+00.2472,+00.5082,+01.124,-00.247,-09.755,+00.000114,+00.000124,+00.000385*68\r\n'"
1679683297.5660555,13561,1679683297,546992778,IMU1_Frame,0,0,0,,0.05918058915532699,0.0003956126995778037,-0.9687281535809235,0.24096320428130757,"(0.0, 0.0, 0.0, 0.0, 0.0, 0.0, 0.0, 0.0, 0.0)",0.000791,0.000374,0.00069,"(0.0, 0.0, 0.0, 0.0, 0.0, 0.0, 0.0, 0.0, 0.0)",1.066,-0.278,-9.781,"(0.0, 0.0, 0.0, 0.0, 0.0, 0.0, 0.0, 0.0, 0.0)",0,0,0,,-0.4964,0.2495,0.512,"(0.0, 0.0, 0.0, 0.0, 0.0, 0.0, 0.0, 0.0, 0.0)","b'$VNYMR,-151.971,+006.595,+001.601,-00.4964,+00.2495,+00.5120,+01.066,-00.278,-09.781,+00.000791,+00.000374,+00.000693*66\r\n'"
1679683297.6100392,13562,1679683297,572126150,IMU1_Frame,0,0,0,,0.0591721422333714,0.00039297991636744363,-0.9687307138060206,0.24095499015205452,"(0.0, 0.0, 0.0, 0.0, 0.0, 0.0, 0.0, 0.0, 0.0)",0.000683,0.000776,-0.00026,"(0.0, 0.0, 0.0, 0.0, 0.0, 0.0, 0.0, 0.0, 0.0)",1.111,-0.277,-9.773,"(0.0, 0.0, 0.0, 0.0, 0.0, 0.0, 0.0, 0.0, 0.0)",0,0,0,,-0.4963,0.2528,0.5158,"(0.0, 0.0, 0.0, 0.0, 0.0, 0.0, 0.0, 0.0, 0.0)","b'$VNYMR,-151.972,+006.594,+001.601,-00.4963,+00.2528,+00.5158,+01.111,-00.277,-09.773,+00.000683,+00.000776,-00.000265*67\r\n'"
1679683297.6100721,13563,1679683297,597136020,IMU1_Frame,0,0,0,,0.05915099008967849,0.00037075572586894347,-0.9687278867478324,0.24097158411041192,"(0.0, 0.0, 0.0, 0.0, 0.0, 0.0, 0.0, 0.0, 0.0)",0.001274,-0.000158,-0.00098,"(0.0, 0.0, 0.0, 0.0, 0.0, 0.0, 0.0, 0.0, 0.0)",1.109,-0.289,-9.778,"(0.0, 0.0, 0.0, 0.0, 0.0, 0.0, 0.0, 0.0, 0.0)",0,0,0,,-0.4965,0.2439,0.5146,"(0.0, 0.0, 0.0, 0.0, 0.0, 0.0, 0.0, 0.0, 0.0)","b'$VNYMR,-151.970,+006.591,+001.603,-00.4965,+00.2439,+00.5146,+01.109,-00.289,-09.778,+00.001274,-00.000158,-00.000983*6B\r\n'"
1679683297.6538708,13564,1679683297,622048139,IMU1_Frame,0,0,0,,0.05915099008967849,0.00037075572586894347,-0.9687278867478324,0.24097158411041192,"(0.0, 0.0, 0.0, 0.0, 0.0, 0.0, 0.0, 0.0, 0.0)",0.000789,0.001404,-0.0001,"(0.0, 0.0, 0.0, 0.0, 0.0, 0.0, 0.0, 0.0, 0.0)",1.094,-0.251,-9.797,"(0.0, 0.0, 0.0, 0.0, 0.0, 0.0, 0.0, 0.0, 0.0)",0,0,0,,-0.4943,0.2483,0.5172,"(0.0, 0.0, 0.0, 0.0, 0.0, 0.0, 0.0, 0.0, 0.0)","b'$VNYMR,-151.970,+006.591,+001.603,-00.4943,+00.2483,+00.5172,+01.094,-00.251,-09.797,+00.000789,+00.001404,-00.000109*6F\r\n'"
1679683297.6538887,13565,1679683297,646887063,IMU1_Frame,0,0,0,,0.059142539740703985,0.00036863923515645207,-0.9687283438729576,0.2409718238203187,"(0.0, 0.0, 0.0, 0.0, 0.0, 0.0, 0.0, 0.0, 0.0)",0.001225,0.001193,-0.00017,"(0.0, 0.0, 0.0, 0.0, 0.0, 0.0, 0.0, 0.0, 0.0)",1.151,-0.263,-9.758,"(0.0, 0.0, 0.0, 0.0, 0.0, 0.0, 0.0, 0.0, 0.0)",0,0,0,,-0.4932,0.2472,0.5134,"(0.0, 0.0, 0.0, 0.0, 0.0, 0.0, 0.0, 0.0, 0.0)","b'$VNYMR,-151.970,+006.590,+001.603,-00.4932,+00.2472,+00.5134,+01.151,-00.263,-09.758,+00.001225,+00.001193,-00.000176*6F\r\n'"
1679683297.6978078,13566,1679683297,671704292,IMU1_Frame,0,0,0,,0.05914887726570222,0.0003807579855605644,-0.9687215745086815,0.24099746144510395,"(0.0, 0.0, 0.0, 0.0, 0.0, 0.0, 0.0, 0.0, 0.0)",0.000621,0.001427,0.00032,"(0.0, 0.0, 0.0, 0.0, 0.0, 0.0, 0.0, 0.0, 0.0)",1.11,-0.258,-9.811,"(0.0, 0.0, 0.0, 0.0, 0.0, 0.0, 0.0, 0.0, 0.0)",0,0,0,,-0.4942,0.2505,0.5146,"(0.0, 0.0, 0.0, 0.0, 0.0, 0.0, 0.0, 0.0, 0.0)","b'$VNYMR,-151.967,+006.591,+001.602,-00.4942,+00.2505,+00.5146,+01.110,-00.258,-09.811,+00.000621,+00.001427,+00.000328*61\r\n'"
1679683297.7007163,13567,1679683297,696780681,IMU1_Frame,0,0,0,,0.05914677416385444,0.00038921167605110094,-0.9687215711490551,0.240997977607256,"(0.0, 0.0, 0.0, 0.0, 0.0, 0.0, 0.0, 0.0, 0.0)",0.000298,0.000679,0.00075,"(0.0, 0.0, 0.0, 0.0, 0.0, 0.0, 0.0, 0.0, 0.0)",1.138,-0.289,-9.771,"(0.0, 0.0, 0.0, 0.0, 0.0, 0.0, 0.0, 0.0, 0.0)",0,0,0,,-0.4975,0.2461,0.5146,"(0.0, 0.0, 0.0, 0.0, 0.0, 0.0, 0.0, 0.0, 0.0)","b'$VNYMR,-151.967,+006.591,+001.601,-00.4975,+00.2461,+00.5146,+01.138,-00.289,-09.771,+00.000298,+00.000679,+00.000757*68\r\n'"
1679683297.7418015,13568,1679683297,721690654,IMU1_Frame,0,0,0,,0.05913622075766736,0.0003955486665386757,-0.9687220248899209,0.240998733251701,"(0.0, 0.0, 0.0, 0.0, 0.0, 0.0, 0.0, 0.0, 0.0)",-0.000474,0.000977,-0.00032,"(0.0, 0.0, 0.0, 0.0, 0.0, 0.0, 0.0, 0.0, 0.0)",1.133,-0.243,-9.779,"(0.0, 0.0, 0.0, 0.0, 0.0, 0.0, 0.0, 0.0, 0.0)",0,0,0,,-0.4954,0.2461,0.5134,"(0.0, 0.0, 0.0, 0.0, 0.0, 0.0, 0.0, 0.0, 0.0)","b'$VNYMR,-151.967,+006.590,+001.600,-00.4954,+00.2461,+00.5134,+01.133,-00.243,-09.779,-00.000474,+00.000977,-00.000328*62\r\n'"
1679683297.7859735,13569,1679683297,746737957,IMU1_Frame,0,0,0,,0.05914046844686385,0.0004140566494102802,-0.9687236637082673,0.24099107228403344,"(0.0, 0.0, 0.0, 0.0, 0.0, 0.0, 0.0, 0.0, 0.0)",0.000743,-0.000313,0.00044,"(0.0, 0.0, 0.0, 0.0, 0.0, 0.0, 0.0, 0.0, 0.0)",1.129,-0.267,-9.77,"(0.0, 0.0, 0.0, 0.0, 0.0, 0.0, 0.0, 0.0, 0.0)",0,0,0,,-0.4964,0.2461,0.5159,"(0.0, 0.0, 0.0, 0.0, 0.0, 0.0, 0.0, 0.0, 0.0)","b'$VNYMR,-151.968,+006.591,+001.598,-00.4964,+00.2461,+00.5159,+01.129,-00.267,-09.770,+00.000743,-00.000313,+00.000441*63\r\n'"
1679683297.7860096,13570,1679683297,771965026,IMU1_Frame,0,0,0,,0.05913837276596193,0.00042147819887645467,-0.9687278660071967,0.24097468091869054,"(0.0, 0.0, 0.0, 0.0, 0.0, 0.0, 0.0, 0.0, 0.0)",0.000458,0.000871,-0.00034,"(0.0, 0.0, 0.0, 0.0, 0.0, 0.0, 0.0, 0.0, 0.0)",1.135,-0.266,-9.77,"(0.0, 0.0, 0.0, 0.0, 0.0, 0.0, 0.0, 0.0, 0.0)",0,0,0,,-0.4952,0.255,0.5158,"(0.0, 0.0, 0.0, 0.0, 0.0, 0.0, 0.0, 0.0, 0.0)","b'$VNYMR,-151.970,+006.591,+001.597,-00.4952,+00.2550,+00.5158,+01.135,-00.266,-09.770,+00.000458,+00.000871,-00.000348*66\r\n'"
1679683297.8299813,13571,1679683297,796947717,IMU1_Frame,0,0,0,,0.05913626986291215,0.00042993194426912094,-0.9687278622922192,0.2409751969891744,"(0.0, 0.0, 0.0, 0.0, 0.0, 0.0, 0.0, 0.0, 0.0)",0.001596,0.00145,0.00067,"(0.0, 0.0, 0.0, 0.0, 0.0, 0.0, 0.0, 0.0, 0.0)",1.144,-0.222,-9.753,"(0.0, 0.0, 0.0, 0.0, 0.0, 0.0, 0.0, 0.0, 0.0)",0,0,0,,-0.4974,0.2506,0.5133,"(0.0, 0.0, 0.0, 0.0, 0.0, 0.0, 0.0, 0.0, 0.0)","b'$VNYMR,-151.970,+006.591,+001.596,-00.4974,+00.2506,+00.5133,+01.144,-00.222,-09.753,+00.001596,+00.001450,+00.000677*69\r\n'"
1679683297.8318446,13572,1679683297,821869373,IMU1_Frame,0,0,0,,0.05913416312747038,0.0004389017325692503,-0.9687257555567773,0.2409841667774746,"(0.0, 0.0, 0.0, 0.0, 0.0, 0.0, 0.0, 0.0, 0.0)",0.000259,2.3e-05,0.00089,"(0.0, 0.0, 0.0, 0.0, 0.0, 0.0, 0.0, 0.0, 0.0)",1.099,-0.247,-9.783,"(0.0, 0.0, 0.0, 0.0, 0.0, 0.0, 0.0, 0.0, 0.0)",0,0,0,,-0.4931,0.2538,0.5133,"(0.0, 0.0, 0.0, 0.0, 0.0, 0.0, 0.0, 0.0, 0.0)","b'$VNYMR,-151.969,+006.591,+001.595,-00.4931,+00.2538,+00.5133,+01.099,-00.247,-09.783,+00.000259,+00.000023,+00.000892*60\r\n'"
1679683297.8738399,13573,1679683297,846733808,IMU1_Frame,0,0,0,,0.05913206014164102,0.00044735545954409893,-0.9687257516897508,0.24098468281122212,"(0.0, 0.0, 0.0, 0.0, 0.0, 0.0, 0.0, 0.0, 0.0)",0.000734,0.000525,-0.0,"(0.0, 0.0, 0.0, 0.0, 0.0, 0.0, 0.0, 0.0, 0.0)",1.137,-0.267,-9.804,"(0.0, 0.0, 0.0, 0.0, 0.0, 0.0, 0.0, 0.0, 0.0)",0,0,0,,-0.4933,0.2438,0.5147,"(0.0, 0.0, 0.0, 0.0, 0.0, 0.0, 0.0, 0.0, 0.0)","b'$VNYMR,-151.969,+006.591,+001.594,-00.4933,+00.2438,+00.5147,+01.137,-00.267,-09.804,+00.000734,+00.000525,-00.000002*6C\r\n'"
1679683297.9178755,13574,1679683297,871798276,IMU1_Frame,0,0,0,,0.059132067940460394,0.00044632341033305767,-0.9687299575183672,0.24096777532060312,"(0.0, 0.0, 0.0, 0.0, 0.0, 0.0, 0.0, 0.0, 0.0)",0.001399,-2.3e-05,0.00039,"(0.0, 0.0, 0.0, 0.0, 0.0, 0.0, 0.0, 0.0, 0.0)",1.115,-0.25,-9.784,"(0.0, 0.0, 0.0, 0.0, 0.0, 0.0, 0.0, 0.0, 0.0)",0,0,0,,-0.4911,0.246,0.5096,"(0.0, 0.0, 0.0, 0.0, 0.0, 0.0, 0.0, 0.0, 0.0)","b'$VNYMR,-151.971,+006.591,+001.594,-00.4911,+00.2460,+00.5096,+01.115,-00.250,-09.784,+00.001399,-00.000023,+00.000391*6E\r\n'"
1679683297.9179075,13575,1679683297,896757602,IMU1_Frame,0,0,0,,0.05911517101918676,0.0004415747710099834,-0.9687329748392918,0.24095979960588873,"(0.0, 0.0, 0.0, 0.0, 0.0, 0.0, 0.0, 0.0, 0.0)",0.001292,0.000183,-0.00041,"(0.0, 0.0, 0.0, 0.0, 0.0, 0.0, 0.0, 0.0, 0.0)",1.118,-0.248,-9.742,"(0.0, 0.0, 0.0, 0.0, 0.0, 0.0, 0.0, 0.0, 0.0)",0,0,0,,-0.4975,0.2462,0.512,"(0.0, 0.0, 0.0, 0.0, 0.0, 0.0, 0.0, 0.0, 0.0)","b'$VNYMR,-151.972,+006.589,+001.594,-00.4975,+00.2462,+00.5120,+01.118,-00.248,-09.742,+00.001292,+00.000183,-00.000411*68\r\n'"
1679683297.9619524,13576,1679683297,921923875,IMU1_Frame,0,0,0,,0.059115174870402645,0.0004410588938070902,-0.9687350775733392,0.24095134580672187,"(0.0, 0.0, 0.0, 0.0, 0.0, 0.0, 0.0, 0.0, 0.0)",0.000208,-9e-05,0.00023,"(0.0, 0.0, 0.0, 0.0, 0.0, 0.0, 0.0, 0.0, 0.0)",1.092,-0.27,-9.796,"(0.0, 0.0, 0.0, 0.0, 0.0, 0.0, 0.0, 0.0, 0.0)",0,0,0,,-0.4943,0.2461,0.5134,"(0.0, 0.0, 0.0, 0.0, 0.0, 0.0, 0.0, 0.0, 0.0)","b'$VNYMR,-151.973,+006.589,+001.594,-00.4943,+00.2461,+00.5134,+01.092,-00.270,-09.796,+00.000208,-00.000090,+00.000231*6E\r\n'"
1679683297.9620016,13577,1679683297,946865320,IMU1_Frame,0,0,0,,0.05910883463965799,0.00042945720410354424,-0.9687397437589566,0.2409341613301916,"(0.0, 0.0, 0.0, 0.0, 0.0, 0.0, 0.0, 0.0, 0.0)",0.000306,0.000543,0.00077,"(0.0, 0.0, 0.0, 0.0, 0.0, 0.0, 0.0, 0.0, 0.0)",1.134,-0.279,-9.76,"(0.0, 0.0, 0.0, 0.0, 0.0, 0.0, 0.0, 0.0, 0.0)",0,0,0,,-0.4975,0.245,0.5108,"(0.0, 0.0, 0.0, 0.0, 0.0, 0.0, 0.0, 0.0, 0.0)","b'$VNYMR,-151.975,+006.588,+001.595,-00.4975,+00.2450,+00.5108,+01.134,-00.279,-09.760,+00.000306,+00.000543,+00.000770*6F\r\n'"
1679683298.009904,13578,1679683297,971946001,IMU1_Frame,0,0,0,,0.059113036122626264,0.00041306536448679383,-0.9687376485317696,0.2409415834896656,"(0.0, 0.0, 0.0, 0.0, 0.0, 0.0, 0.0, 0.0, 0.0)",-0.00014,-0.000643,0.00122,"(0.0, 0.0, 0.0, 0.0, 0.0, 0.0, 0.0, 0.0, 0.0)",1.117,-0.26,-9.756,"(0.0, 0.0, 0.0, 0.0, 0.0, 0.0, 0.0, 0.0, 0.0)",0,0,0,,-0.4931,0.2538,0.5146,"(0.0, 0.0, 0.0, 0.0, 0.0, 0.0, 0.0, 0.0, 0.0)","b'$VNYMR,-151.974,+006.588,+001.597,-00.4931,+00.2538,+00.5146,+01.117,-00.260,-09.756,-00.000140,-00.000643,+00.001225*62\r\n'"
1679683298.0099435,13579,1679683297,996789693,IMU1_Frame,0,0,0,,0.059102468381490574,0.0004214660929368584,-0.9687296908672349,0.24097615365388186,"(0.0, 0.0, 0.0, 0.0, 0.0, 0.0, 0.0, 0.0, 0.0)",-0.000275,2.3e-05,-0.0006,"(0.0, 0.0, 0.0, 0.0, 0.0, 0.0, 0.0, 0.0, 0.0)",1.1,-0.274,-9.762,"(0.0, 0.0, 0.0, 0.0, 0.0, 0.0, 0.0, 0.0, 0.0)",0,0,0,,-0.4975,0.2484,0.5171,"(0.0, 0.0, 0.0, 0.0, 0.0, 0.0, 0.0, 0.0, 0.0)","b'$VNYMR,-151.970,+006.587,+001.596,-00.4975,+00.2484,+00.5171,+01.100,-00.274,-09.762,-00.000275,+00.000023,-00.000607*6E\r\n'"
1679683298.0539794,13580,1679683298,22008419,IMU1_Frame,0,0,0,,0.05910247205722562,0.0004209503265861711,-0.9687317937439984,0.2409676998833727,"(0.0, 0.0, 0.0, 0.0, 0.0, 0.0, 0.0, 0.0, 0.0)",0.001026,9.2e-05,-0.00091,"(0.0, 0.0, 0.0, 0.0, 0.0, 0.0, 0.0, 0.0, 0.0)",1.101,-0.27,-9.757,"(0.0, 0.0, 0.0, 0.0, 0.0, 0.0, 0.0, 0.0, 0.0)",0,0,0,,-0.4932,0.2505,0.5184,"(0.0, 0.0, 0.0, 0.0, 0.0, 0.0, 0.0, 0.0, 0.0)","b'$VNYMR,-151.971,+006.587,+001.596,-00.4932,+00.2505,+00.5184,+01.101,-00.270,-09.757,+00.001026,+00.000092,-00.000919*64\r\n'"
1679683298.0593472,13581,1679683298,46799898,IMU1_Frame,0,0,0,,0.0590982663684701,0.0004378578858907807,-0.9687317862494829,0.24096873137940464,"(0.0, 0.0, 0.0, 0.0, 0.0, 0.0, 0.0, 0.0, 0.0)",-0.000369,0.000466,0.00019,"(0.0, 0.0, 0.0, 0.0, 0.0, 0.0, 0.0, 0.0, 0.0)",1.111,-0.263,-9.788,"(0.0, 0.0, 0.0, 0.0, 0.0, 0.0, 0.0, 0.0, 0.0)",0,0,0,,-0.4922,0.2471,0.516,"(0.0, 0.0, 0.0, 0.0, 0.0, 0.0, 0.0, 0.0, 0.0)","b'$VNYMR,-151.971,+006.587,+001.594,-00.4922,+00.2471,+00.5160,+01.111,-00.263,-09.788,-00.000369,+00.000466,+00.000191*60\r\n'"
1679683298.1058943,13582,1679683298,71778297,IMU1_Frame,0,0,0,,0.05910671676822015,0.0004399742670517688,-0.9687313291773635,0.24096849239223045,"(0.0, 0.0, 0.0, 0.0, 0.0, 0.0, 0.0, 0.0, 0.0)",-0.000131,-0.000632,-0.00035,"(0.0, 0.0, 0.0, 0.0, 0.0, 0.0, 0.0, 0.0, 0.0)",1.136,-0.256,-9.801,"(0.0, 0.0, 0.0, 0.0, 0.0, 0.0, 0.0, 0.0, 0.0)",0,0,0,,-0.4964,0.2506,0.5146,"(0.0, 0.0, 0.0, 0.0, 0.0, 0.0, 0.0, 0.0, 0.0)","b'$VNYMR,-151.971,+006.588,+001.594,-00.4964,+00.2506,+00.5146,+01.136,-00.256,-09.801,-00.000131,-00.000632,-00.000351*67\r\n'"
1679683298.1499953,13583,1679683298,96773624,IMU1_Frame,0,0,0,,0.05910461391917665,0.0004484280426655905,-0.968731325300977,0.24096900818646383,"(0.0, 0.0, 0.0, 0.0, 0.0, 0.0, 0.0, 0.0, 0.0)",0.000113,0.000163,-0.00012,"(0.0, 0.0, 0.0, 0.0, 0.0, 0.0, 0.0, 0.0, 0.0)",1.118,-0.247,-9.761,"(0.0, 0.0, 0.0, 0.0, 0.0, 0.0, 0.0, 0.0, 0.0)",0,0,0,,-0.4963,0.2528,0.5133,"(0.0, 0.0, 0.0, 0.0, 0.0, 0.0, 0.0, 0.0, 0.0)","b'$VNYMR,-151.971,+006.588,+001.593,-00.4963,+00.2528,+00.5133,+01.118,-00.247,-09.761,+00.000113,+00.000163,-00.000123*68\r\n'"
1679683298.150087,13584,1679683298,121925592,IMU1_Frame,0,0,0,,0.059083499334316864,0.00046213405703389443,-0.9687280256316915,0.24098742476372068,"(0.0, 0.0, 0.0, 0.0, 0.0, 0.0, 0.0, 0.0, 0.0)",-2e-05,-0.001166,0.00132,"(0.0, 0.0, 0.0, 0.0, 0.0, 0.0, 0.0, 0.0, 0.0)",1.135,-0.261,-9.794,"(0.0, 0.0, 0.0, 0.0, 0.0, 0.0, 0.0, 0.0, 0.0)",0,0,0,,-0.4953,0.2494,0.5133,"(0.0, 0.0, 0.0, 0.0, 0.0, 0.0, 0.0, 0.0, 0.0)","b'$VNYMR,-151.969,+006.586,+001.591,-00.4953,+00.2494,+00.5133,+01.135,-00.261,-09.794,-00.000020,-00.001166,+00.001322*68\r\n'"
1679683298.1939402,13585,1679683298,146764993,IMU1_Frame,0,0,0,,0.05908349529918669,0.00046264965781478776,-0.968725922582796,0.24099587850134635,"(0.0, 0.0, 0.0, 0.0, 0.0, 0.0, 0.0, 0.0, 0.0)",0.000119,0.001067,1e-05,"(0.0, 0.0, 0.0, 0.0, 0.0, 0.0, 0.0, 0.0, 0.0)",1.136,-0.247,-9.765,"(0.0, 0.0, 0.0, 0.0, 0.0, 0.0, 0.0, 0.0, 0.0)",0,0,0,,-0.4933,0.246,0.5134,"(0.0, 0.0, 0.0, 0.0, 0.0, 0.0, 0.0, 0.0, 0.0)","b'$VNYMR,-151.968,+006.586,+001.591,-00.4933,+00.2460,+00.5134,+01.136,-00.247,-09.765,+00.000119,+00.001067,+00.000017*65\r\n'"
1679683298.19399,13586,1679683298,171756505,IMU1_Frame,0,0,0,,0.059091941596180635,0.00046528192276353887,-0.9687233624147094,0.24100409345707263,"(0.0, 0.0, 0.0, 0.0, 0.0, 0.0, 0.0, 0.0, 0.0)",0.001216,0.000459,-3e-05,"(0.0, 0.0, 0.0, 0.0, 0.0, 0.0, 0.0, 0.0, 0.0)",1.14,-0.267,-9.766,"(0.0, 0.0, 0.0, 0.0, 0.0, 0.0, 0.0, 0.0, 0.0)",0,0,0,,-0.4952,0.255,0.5145,"(0.0, 0.0, 0.0, 0.0, 0.0, 0.0, 0.0, 0.0, 0.0)","b'$VNYMR,-151.967,+006.587,+001.591,-00.4952,+00.2550,+00.5145,+01.140,-00.267,-09.766,+00.001216,+00.000459,-00.000036*68\r\n'"
1679683298.2379353,13587,1679683298,196732997,IMU1_Frame,0,0,0,,0.05908348721542794,0.00046368085927082567,-0.9687217162636873,0.24101278592153816,"(0.0, 0.0, 0.0, 0.0, 0.0, 0.0, 0.0, 0.0, 0.0)",-2.5e-05,0.000169,0.0007,"(0.0, 0.0, 0.0, 0.0, 0.0, 0.0, 0.0, 0.0, 0.0)",1.124,-0.277,-9.82,"(0.0, 0.0, 0.0, 0.0, 0.0, 0.0, 0.0, 0.0, 0.0)",0,0,0,,-0.4932,0.2505,0.5159,"(0.0, 0.0, 0.0, 0.0, 0.0, 0.0, 0.0, 0.0, 0.0)","b'$VNYMR,-151.966,+006.586,+001.591,-00.4932,+00.2505,+00.5159,+01.124,-00.277,-09.820,-00.000025,+00.000169,+00.000703*69\r\n'"
1679683298.2379742,13588,1679683298,221780300,IMU1_Frame,0,0,0,,0.05907293365511687,0.00047001781700170726,-0.9687221691684568,0.2410135401884914,"(0.0, 0.0, 0.0, 0.0, 0.0, 0.0, 0.0, 0.0, 0.0)",-0.000598,0.000744,8e-05,"(0.0, 0.0, 0.0, 0.0, 0.0, 0.0, 0.0, 0.0, 0.0)",1.09,-0.269,-9.787,"(0.0, 0.0, 0.0, 0.0, 0.0, 0.0, 0.0, 0.0, 0.0)",0,0,0,,-0.4944,0.2438,0.5147,"(0.0, 0.0, 0.0, 0.0, 0.0, 0.0, 0.0, 0.0, 0.0)","b'$VNYMR,-151.966,+006.585,+001.590,-00.4944,+00.2438,+00.5147,+01.090,-00.269,-09.787,-00.000598,+00.000744,+00.000085*6A\r\n'"
1679683298.2859304,13589,1679683298,246793746,IMU1_Frame,0,0,0,,0.05907293365511687,0.00047001781700170726,-0.9687221691684568,0.2410135401884914,"(0.0, 0.0, 0.0, 0.0, 0.0, 0.0, 0.0, 0.0, 0.0)",0.0002,-0.000322,0.00059,"(0.0, 0.0, 0.0, 0.0, 0.0, 0.0, 0.0, 0.0, 0.0)",1.128,-0.274,-9.775,"(0.0, 0.0, 0.0, 0.0, 0.0, 0.0, 0.0, 0.0, 0.0)",0,0,0,,-0.4911,0.2482,0.5147,"(0.0, 0.0, 0.0, 0.0, 0.0, 0.0, 0.0, 0.0, 0.0)","b'$VNYMR,-151.966,+006.585,+001.590,-00.4911,+00.2482,+00.5147,+01.128,-00.274,-09.775,+00.000200,-00.000322,+00.000596*6D\r\n'"
1679683298.2859745,13590,1679683298,271709442,IMU1_Frame,0,0,0,,0.05906658656562643,0.00045944738327280757,-0.96872263012904,0.24101326340154508,"(0.0, 0.0, 0.0, 0.0, 0.0, 0.0, 0.0, 0.0, 0.0)",0.000272,0.001321,0.00016,"(0.0, 0.0, 0.0, 0.0, 0.0, 0.0, 0.0, 0.0, 0.0)",1.089,-0.27,-9.778,"(0.0, 0.0, 0.0, 0.0, 0.0, 0.0, 0.0, 0.0, 0.0)",0,0,0,,-0.491,0.2549,0.5108,"(0.0, 0.0, 0.0, 0.0, 0.0, 0.0, 0.0, 0.0, 0.0)","b'$VNYMR,-151.966,+006.584,+001.591,-00.4910,+00.2549,+00.5108,+01.089,-00.270,-09.778,+00.000272,+00.001321,+00.000164*6A\r\n'"
1679683298.3299565,13591,1679683298,296666860,IMU1_Frame,0,0,0,,0.059060227699495656,0.00045042313479992137,-0.9687167808679211,0.24103834775399435,"(0.0, 0.0, 0.0, 0.0, 0.0, 0.0, 0.0, 0.0, 0.0)",0.001087,0.001608,0.0003,"(0.0, 0.0, 0.0, 0.0, 0.0, 0.0, 0.0, 0.0, 0.0)",1.092,-0.286,-9.751,"(0.0, 0.0, 0.0, 0.0, 0.0, 0.0, 0.0, 0.0, 0.0)",0,0,0,,-0.4921,0.2505,0.5159,"(0.0, 0.0, 0.0, 0.0, 0.0, 0.0, 0.0, 0.0, 0.0)","b'$VNYMR,-151.963,+006.583,+001.592,-00.4921,+00.2505,+00.5159,+01.092,-00.286,-09.751,+00.001087,+00.001608,+00.000301*6B\r\n'"
1679683298.3323221,13592,1679683298,321719884,IMU1_Frame,0,0,0,,0.05905177350639426,0.0004488214954547227,-0.9687151340960773,0.24104704017729273,"(0.0, 0.0, 0.0, 0.0, 0.0, 0.0, 0.0, 0.0, 0.0)",0.000827,-0.001178,-0.00052,"(0.0, 0.0, 0.0, 0.0, 0.0, 0.0, 0.0, 0.0, 0.0)",1.114,-0.284,-9.783,"(0.0, 0.0, 0.0, 0.0, 0.0, 0.0, 0.0, 0.0, 0.0)",0,0,0,,-0.4953,0.2483,0.5146,"(0.0, 0.0, 0.0, 0.0, 0.0, 0.0, 0.0, 0.0, 0.0)","b'$VNYMR,-151.962,+006.582,+001.592,-00.4953,+00.2483,+00.5146,+01.114,-00.284,-09.783,+00.000827,-00.001178,-00.000523*68\r\n'"
1679683298.373885,13593,1679683298,346689939,IMU1_Frame,0,0,0,,0.05904966997189412,0.000457275129739464,-0.968715130142485,0.24104755549205273,"(0.0, 0.0, 0.0, 0.0, 0.0, 0.0, 0.0, 0.0, 0.0)",0.000396,0.000907,-0.0006,"(0.0, 0.0, 0.0, 0.0, 0.0, 0.0, 0.0, 0.0, 0.0)",1.122,-0.278,-9.783,"(0.0, 0.0, 0.0, 0.0, 0.0, 0.0, 0.0, 0.0, 0.0)",0,0,0,,-0.4954,0.2472,0.5146,"(0.0, 0.0, 0.0, 0.0, 0.0, 0.0, 0.0, 0.0, 0.0)","b'$VNYMR,-151.962,+006.582,+001.591,-00.4954,+00.2472,+00.5146,+01.122,-00.278,-09.783,+00.000396,+00.000907,-00.000604*64\r\n'"
1679683298.417957,13594,1679683298,371778726,IMU1_Frame,0,0,0,,0.05904965798022322,0.0004588210463274088,-0.9687088192002666,0.24107291631224628,"(0.0, 0.0, 0.0, 0.0, 0.0, 0.0, 0.0, 0.0, 0.0)",0.000499,0.000534,-0.00021,"(0.0, 0.0, 0.0, 0.0, 0.0, 0.0, 0.0, 0.0, 0.0)",1.124,-0.264,-9.763,"(0.0, 0.0, 0.0, 0.0, 0.0, 0.0, 0.0, 0.0, 0.0)",0,0,0,,-0.4912,0.2449,0.5135,"(0.0, 0.0, 0.0, 0.0, 0.0, 0.0, 0.0, 0.0, 0.0)","b'$VNYMR,-151.959,+006.582,+001.591,-00.4912,+00.2449,+00.5135,+01.124,-00.264,-09.763,+00.000499,+00.000534,-00.000213*61\r\n'"
1679683298.4180157,13595,1679683298,396623373,IMU1_Frame,0,0,0,,0.05906445463323164,0.00047150912606471265,-0.9687079015813608,0.24107295429363176,"(0.0, 0.0, 0.0, 0.0, 0.0, 0.0, 0.0, 0.0, 0.0)",0.000806,0.001868,0.00071,"(0.0, 0.0, 0.0, 0.0, 0.0, 0.0, 0.0, 0.0, 0.0)",1.13,-0.257,-9.773,"(0.0, 0.0, 0.0, 0.0, 0.0, 0.0, 0.0, 0.0, 0.0)",0,0,0,,-0.4901,0.2437,0.5135,"(0.0, 0.0, 0.0, 0.0, 0.0, 0.0, 0.0, 0.0, 0.0)","b'$VNYMR,-151.959,+006.584,+001.590,-00.4901,+00.2437,+00.5135,+01.130,-00.257,-09.773,+00.000806,+00.001868,+00.000714*62\r\n'"
1679683298.4620848,13596,1679683298,421701908,IMU1_Frame,0,0,0,,0.05907290069772594,0.0004741418846173299,-0.9687053408884806,0.2410811691666573,"(0.0, 0.0, 0.0, 0.0, 0.0, 0.0, 0.0, 0.0, 0.0)",-0.000308,-0.000553,-0.00035,"(0.0, 0.0, 0.0, 0.0, 0.0, 0.0, 0.0, 0.0, 0.0)",1.129,-0.271,-9.796,"(0.0, 0.0, 0.0, 0.0, 0.0, 0.0, 0.0, 0.0, 0.0)",0,0,0,,-0.4911,0.2482,0.5172,"(0.0, 0.0, 0.0, 0.0, 0.0, 0.0, 0.0, 0.0, 0.0)","b'$VNYMR,-151.958,+006.585,+001.590,-00.4911,+00.2482,+00.5172,+01.129,-00.271,-09.796,-00.000308,-00.000553,-00.000355*6F\r\n'"
1679683298.462129,13597,1679683298,446595668,IMU1_Frame,0,0,0,,0.05907500858720781,0.00046517280907427093,-0.9687074487779627,0.24107220009111419,"(0.0, 0.0, 0.0, 0.0, 0.0, 0.0, 0.0, 0.0, 0.0)",0.000758,-0.000556,-0.00011,"(0.0, 0.0, 0.0, 0.0, 0.0, 0.0, 0.0, 0.0, 0.0)",1.132,-0.268,-9.801,"(0.0, 0.0, 0.0, 0.0, 0.0, 0.0, 0.0, 0.0, 0.0)",0,0,0,,-0.4943,0.2494,0.5108,"(0.0, 0.0, 0.0, 0.0, 0.0, 0.0, 0.0, 0.0, 0.0)","b'$VNYMR,-151.959,+006.585,+001.591,-00.4943,+00.2494,+00.5108,+01.132,-00.268,-09.801,+00.000758,-00.000556,-00.000113*63\r\n'"
1679683298.5099688,13598,1679683298,471653223,IMU1_Frame,0,0,0,,0.05907924704441417,0.0004847127533836818,-0.9687048797240786,0.2410814460321865,"(0.0, 0.0, 0.0, 0.0, 0.0, 0.0, 0.0, 0.0, 0.0)",0.00073,0.000181,0.00082,"(0.0, 0.0, 0.0, 0.0, 0.0, 0.0, 0.0, 0.0, 0.0)",1.096,-0.243,-9.768,"(0.0, 0.0, 0.0, 0.0, 0.0, 0.0, 0.0, 0.0, 0.0)",0,0,0,,-0.4953,0.2494,0.5095,"(0.0, 0.0, 0.0, 0.0, 0.0, 0.0, 0.0, 0.0, 0.0)","b'$VNYMR,-151.958,+006.586,+001.589,-00.4953,+00.2494,+00.5095,+01.096,-00.243,-09.768,+00.000730,+00.000181,+00.000828*6B\r\n'"
1679683298.510018,13599,1679683298,496578931,IMU1_Frame,0,0,0,,0.05906445051628927,0.0004720245606488812,-0.9687057977860801,0.2410814078556387,"(0.0, 0.0, 0.0, 0.0, 0.0, 0.0, 0.0, 0.0, 0.0)",0.00175,0.000535,-0.00029,"(0.0, 0.0, 0.0, 0.0, 0.0, 0.0, 0.0, 0.0, 0.0)",1.13,-0.246,-9.774,"(0.0, 0.0, 0.0, 0.0, 0.0, 0.0, 0.0, 0.0, 0.0)",0,0,0,,-0.4953,0.2494,0.5146,"(0.0, 0.0, 0.0, 0.0, 0.0, 0.0, 0.0, 0.0, 0.0)","b'$VNYMR,-151.958,+006.584,+001.590,-00.4953,+00.2494,+00.5146,+01.130,-00.246,-09.774,+00.001750,+00.000535,-00.000295*6D\r\n'"
1679683298.5581267,13600,1679683298,521664857,IMU1_Frame,0,0,0,,0.05906234668187409,0.0004804781134580653,-0.9687057936300032,0.24108192328102523,"(0.0, 0.0, 0.0, 0.0, 0.0, 0.0, 0.0, 0.0, 0.0)",0.001008,-2.5e-05,-7e-05,"(0.0, 0.0, 0.0, 0.0, 0.0, 0.0, 0.0, 0.0, 0.0)",1.133,-0.242,-9.752,"(0.0, 0.0, 0.0, 0.0, 0.0, 0.0, 0.0, 0.0, 0.0)",0,0,0,,-0.4964,0.2495,0.5133,"(0.0, 0.0, 0.0, 0.0, 0.0, 0.0, 0.0, 0.0, 0.0)","b'$VNYMR,-151.958,+006.584,+001.589,-00.4964,+00.2495,+00.5133,+01.133,-00.242,-09.752,+00.001008,-00.000025,-00.000075*65\r\n'"
1679683298.5581546,13601,1679683298,546576738,IMU1_Frame,0,0,0,,0.0590559962273917,0.0004704225974510052,-0.9687041507387741,0.24109010007389478,"(0.0, 0.0, 0.0, 0.0, 0.0, 0.0, 0.0, 0.0, 0.0)",0.00076,0.001697,0.00049,"(0.0, 0.0, 0.0, 0.0, 0.0, 0.0, 0.0, 0.0, 0.0)",1.107,-0.243,-9.742,"(0.0, 0.0, 0.0, 0.0, 0.0, 0.0, 0.0, 0.0, 0.0)",0,0,0,,-0.4964,0.2483,0.5171,"(0.0, 0.0, 0.0, 0.0, 0.0, 0.0, 0.0, 0.0, 0.0)","b'$VNYMR,-151.957,+006.583,+001.590,-00.4964,+00.2483,+00.5171,+01.107,-00.243,-09.742,+00.000760,+00.001697,+00.000496*6C\r\n'"
1679683298.6019518,13602,1679683298,572358369,IMU1_Frame,0,0,0,,0.05905389231712292,0.0004788761358870512,-0.968704146596677,0.24109061542550336,"(0.0, 0.0, 0.0, 0.0, 0.0, 0.0, 0.0, 0.0, 0.0)",0.001651,0.000523,0.00014,"(0.0, 0.0, 0.0, 0.0, 0.0, 0.0, 0.0, 0.0, 0.0)",1.164,-0.277,-9.73,"(0.0, 0.0, 0.0, 0.0, 0.0, 0.0, 0.0, 0.0, 0.0)",0,0,0,,-0.4954,0.2439,0.5185,"(0.0, 0.0, 0.0, 0.0, 0.0, 0.0, 0.0, 0.0, 0.0)","b'$VNYMR,-151.957,+006.583,+001.589,-00.4954,+00.2439,+00.5185,+01.164,-00.277,-09.730,+00.001651,+00.000523,+00.000145*6E\r\n'"
1679683298.6068897,13603,1679683298,596552610,IMU1_Frame,0,0,0,,0.0590559962273917,0.0004704225974510052,-0.9687041507387741,0.24109010007389478,"(0.0, 0.0, 0.0, 0.0, 0.0, 0.0, 0.0, 0.0, 0.0)",0.001232,-0.000156,0.00132,"(0.0, 0.0, 0.0, 0.0, 0.0, 0.0, 0.0, 0.0, 0.0)",1.108,-0.262,-9.766,"(0.0, 0.0, 0.0, 0.0, 0.0, 0.0, 0.0, 0.0, 0.0)",0,0,0,,-0.4943,0.2461,0.5159,"(0.0, 0.0, 0.0, 0.0, 0.0, 0.0, 0.0, 0.0, 0.0)","b'$VNYMR,-151.957,+006.583,+001.590,-00.4943,+00.2461,+00.5159,+01.108,-00.262,-09.766,+00.001232,-00.000156,+00.001323*63\r\n'"
1679683298.6499166,13604,1679683298,621504783,IMU1_Frame,0,0,0,,0.05904754605543711,0.00046830519966908207,-0.9687046074867486,0.2410903387301432,"(0.0, 0.0, 0.0, 0.0, 0.0, 0.0, 0.0, 0.0, 0.0)",0.000566,0.000666,-0.00012,"(0.0, 0.0, 0.0, 0.0, 0.0, 0.0, 0.0, 0.0, 0.0)",1.093,-0.272,-9.767,"(0.0, 0.0, 0.0, 0.0, 0.0, 0.0, 0.0, 0.0, 0.0)",0,0,0,,-0.4986,0.2462,0.5133,"(0.0, 0.0, 0.0, 0.0, 0.0, 0.0, 0.0, 0.0, 0.0)","b'$VNYMR,-151.957,+006.582,+001.590,-00.4986,+00.2462,+00.5133,+01.093,-00.272,-09.767,+00.000566,+00.000666,-00.000121*65\r\n'"
1679683298.6940315,13605,1679683298,646605491,IMU1_Frame,0,0,0,,0.05904329584394357,0.0004503112089132219,-0.9687008641959944,0.2411064539609696,"(0.0, 0.0, 0.0, 0.0, 0.0, 0.0, 0.0, 0.0, 0.0)",0.001445,0.000275,0.00072,"(0.0, 0.0, 0.0, 0.0, 0.0, 0.0, 0.0, 0.0, 0.0)",1.082,-0.269,-9.792,"(0.0, 0.0, 0.0, 0.0, 0.0, 0.0, 0.0, 0.0, 0.0)",0,0,0,,-0.4986,0.2473,0.5196,"(0.0, 0.0, 0.0, 0.0, 0.0, 0.0, 0.0, 0.0, 0.0)","b'$VNYMR,-151.955,+006.581,+001.592,-00.4986,+00.2473,+00.5196,+01.082,-00.269,-09.792,+00.001445,+00.000275,+00.000726*69\r\n'"
1679683298.694085,13606,1679683298,672310590,IMU1_Frame,0,0,0,,0.0590284957912282,0.0004381377053294753,-0.9686996770094132,0.24111486988950837,"(0.0, 0.0, 0.0, 0.0, 0.0, 0.0, 0.0, 0.0, 0.0)",0.001443,0.000569,0.00043,"(0.0, 0.0, 0.0, 0.0, 0.0, 0.0, 0.0, 0.0, 0.0)",1.077,-0.267,-9.797,"(0.0, 0.0, 0.0, 0.0, 0.0, 0.0, 0.0, 0.0, 0.0)",0,0,0,,-0.4932,0.2483,0.5159,"(0.0, 0.0, 0.0, 0.0, 0.0, 0.0, 0.0, 0.0, 0.0)","b'$VNYMR,-151.954,+006.579,+001.593,-00.4932,+00.2483,+00.5159,+01.077,-00.267,-09.797,+00.001443,+00.000569,+00.000432*66\r\n'"
1679683298.7419226,13607,1679683298,696594476,IMU1_Frame,0,0,0,,0.059015803777932196,0.0004169954282797362,-0.9687005971435363,0.2411143175197472,"(0.0, 0.0, 0.0, 0.0, 0.0, 0.0, 0.0, 0.0, 0.0)",0.001419,8.8e-05,0.00042,"(0.0, 0.0, 0.0, 0.0, 0.0, 0.0, 0.0, 0.0, 0.0)",1.101,-0.274,-9.721,"(0.0, 0.0, 0.0, 0.0, 0.0, 0.0, 0.0, 0.0, 0.0)",0,0,0,,-0.4954,0.2472,0.5172,"(0.0, 0.0, 0.0, 0.0, 0.0, 0.0, 0.0, 0.0, 0.0)","b'$VNYMR,-151.954,+006.577,+001.595,-00.4954,+00.2472,+00.5172,+01.101,-00.274,-09.721,+00.001419,+00.000088,+00.000421*61\r\n'"
1679683298.7419627,13608,1679683298,722283124,IMU1_Frame,0,0,0,,0.05903481174344417,0.0004122620310385832,-0.9687017922216691,0.2411048709357822,"(0.0, 0.0, 0.0, 0.0, 0.0, 0.0, 0.0, 0.0, 0.0)",-0.000256,0.00096,0.00068,"(0.0, 0.0, 0.0, 0.0, 0.0, 0.0, 0.0, 0.0, 0.0)",1.119,-0.264,-9.765,"(0.0, 0.0, 0.0, 0.0, 0.0, 0.0, 0.0, 0.0, 0.0)",0,0,0,,-0.4974,0.2517,0.5145,"(0.0, 0.0, 0.0, 0.0, 0.0, 0.0, 0.0, 0.0, 0.0)","b'$VNYMR,-151.955,+006.579,+001.596,-00.4974,+00.2517,+00.5145,+01.119,-00.264,-09.765,-00.000256,+00.000960,+00.000686*6B\r\n'"
1679683298.7859967,13609,1679683298,746401309,IMU1_Frame,0,0,0,,0.0590453659120109,0.0004059260864059649,-0.968701339389306,0.24110411662535675,"(0.0, 0.0, 0.0, 0.0, 0.0, 0.0, 0.0, 0.0, 0.0)",-0.000567,0.001485,0.00018,"(0.0, 0.0, 0.0, 0.0, 0.0, 0.0, 0.0, 0.0, 0.0)",1.145,-0.287,-9.745,"(0.0, 0.0, 0.0, 0.0, 0.0, 0.0, 0.0, 0.0, 0.0)",0,0,0,,-0.4942,0.2561,0.5209,"(0.0, 0.0, 0.0, 0.0, 0.0, 0.0, 0.0, 0.0, 0.0)","b'$VNYMR,-151.955,+006.580,+001.597,-00.4942,+00.2561,+00.5209,+01.145,-00.287,-09.745,-00.000567,+00.001485,+00.000185*63\r\n'"
1679683298.7860634,13610,1679683298,772254228,IMU1_Frame,0,0,0,,0.05906015848254531,0.0004191301358875202,-0.9686983186979444,0.24111260722268618,"(0.0, 0.0, 0.0, 0.0, 0.0, 0.0, 0.0, 0.0, 0.0)",-0.000865,-4.4e-05,0.00013,"(0.0, 0.0, 0.0, 0.0, 0.0, 0.0, 0.0, 0.0, 0.0)",1.128,-0.284,-9.74,"(0.0, 0.0, 0.0, 0.0, 0.0, 0.0, 0.0, 0.0, 0.0)",0,0,0,,-0.4922,0.2482,0.5134,"(0.0, 0.0, 0.0, 0.0, 0.0, 0.0, 0.0, 0.0, 0.0)","b'$VNYMR,-151.954,+006.582,+001.596,-00.4922,+00.2482,+00.5134,+01.128,-00.284,-09.740,-00.000865,-00.000044,+00.000136*62\r\n'"
1679683298.8339725,13611,1679683298,797178506,IMU1_Frame,0,0,0,,0.059074962111223116,0.00043078784873653783,-0.9687016096930071,0.2410957375225947,"(0.0, 0.0, 0.0, 0.0, 0.0, 0.0, 0.0, 0.0, 0.0)",-0.001016,0.001667,0.00037,"(0.0, 0.0, 0.0, 0.0, 0.0, 0.0, 0.0, 0.0, 0.0)",1.128,-0.255,-9.749,"(0.0, 0.0, 0.0, 0.0, 0.0, 0.0, 0.0, 0.0, 0.0)",0,0,0,,-0.4932,0.2483,0.5146,"(0.0, 0.0, 0.0, 0.0, 0.0, 0.0, 0.0, 0.0, 0.0)","b'$VNYMR,-151.956,+006.584,+001.595,-00.4932,+00.2483,+00.5146,+01.128,-00.255,-09.749,-00.001016,+00.001667,+00.000371*69\r\n'"
1679683298.8340135,13612,1679683298,822249412,IMU1_Frame,0,0,0,,0.05908130057573769,0.00044239001568692655,-0.9686969410104691,0.24111292103558765,"(0.0, 0.0, 0.0, 0.0, 0.0, 0.0, 0.0, 0.0, 0.0)",0.000284,0.001703,0.00047,"(0.0, 0.0, 0.0, 0.0, 0.0, 0.0, 0.0, 0.0, 0.0)",1.127,-0.245,-9.769,"(0.0, 0.0, 0.0, 0.0, 0.0, 0.0, 0.0, 0.0, 0.0)",0,0,0,,-0.4932,0.2494,0.5146,"(0.0, 0.0, 0.0, 0.0, 0.0, 0.0, 0.0, 0.0, 0.0)","b'$VNYMR,-151.954,+006.585,+001.594,-00.4932,+00.2494,+00.5146,+01.127,-00.245,-09.769,+00.000284,+00.001703,+00.000477*6D\r\n'"
1679683298.8779662,13613,1679683298,847237586,IMU1_Frame,0,0,0,,0.05908129671290686,0.0004429055972807721,-0.9686948368664133,0.24112137450194385,"(0.0, 0.0, 0.0, 0.0, 0.0, 0.0, 0.0, 0.0, 0.0)",0.000954,-0.00019,0.00051,"(0.0, 0.0, 0.0, 0.0, 0.0, 0.0, 0.0, 0.0, 0.0)",1.099,-0.262,-9.782,"(0.0, 0.0, 0.0, 0.0, 0.0, 0.0, 0.0, 0.0, 0.0)",0,0,0,,-0.4963,0.2528,0.5158,"(0.0, 0.0, 0.0, 0.0, 0.0, 0.0, 0.0, 0.0, 0.0)","b'$VNYMR,-151.953,+006.585,+001.594,-00.4963,+00.2528,+00.5158,+01.099,-00.262,-09.782,+00.000954,-00.000190,+00.000513*6D\r\n'"
1679683298.8830767,13614,1679683298,872218132,IMU1_Frame,0,0,0,,0.059091843337136414,0.0004376011999582506,-0.9686901753298053,0.24113752668491953,"(0.0, 0.0, 0.0, 0.0, 0.0, 0.0, 0.0, 0.0, 0.0)",0.000208,0.000374,-0.00038,"(0.0, 0.0, 0.0, 0.0, 0.0, 0.0, 0.0, 0.0, 0.0)",1.121,-0.27,-9.825,"(0.0, 0.0, 0.0, 0.0, 0.0, 0.0, 0.0, 0.0, 0.0)",0,0,0,,-0.4922,0.2482,0.5134,"(0.0, 0.0, 0.0, 0.0, 0.0, 0.0, 0.0, 0.0, 0.0)","b'$VNYMR,-151.951,+006.586,+001.595,-00.4922,+00.2482,+00.5134,+01.121,-00.270,-09.825,+00.000208,+00.000374,-00.000387*61\r\n'"
1679683298.926255,13615,1679683298,897147178,IMU1_Frame,0,0,0,,0.059093951399552494,0.0004286320914524359,-0.9686922833922215,0.24112855757641366,"(0.0, 0.0, 0.0, 0.0, 0.0, 0.0, 0.0, 0.0, 0.0)",0.000783,-0.000779,-0.00073,"(0.0, 0.0, 0.0, 0.0, 0.0, 0.0, 0.0, 0.0, 0.0)",1.121,-0.281,-9.794,"(0.0, 0.0, 0.0, 0.0, 0.0, 0.0, 0.0, 0.0, 0.0)",0,0,0,,-0.4963,0.2528,0.5145,"(0.0, 0.0, 0.0, 0.0, 0.0, 0.0, 0.0, 0.0, 0.0)","b'$VNYMR,-151.952,+006.586,+001.596,-00.4963,+00.2528,+00.5145,+01.121,-00.281,-09.794,+00.000783,-00.000779,-00.000737*6E\r\n'"
1679683298.9700587,13616,1679683298,922098398,IMU1_Frame,0,0,0,,0.05909394390951069,0.00042966347540704733,-0.968688074757431,0.24114546440947085,"(0.0, 0.0, 0.0, 0.0, 0.0, 0.0, 0.0, 0.0, 0.0)",0.001083,0.001014,-0.00028,"(0.0, 0.0, 0.0, 0.0, 0.0, 0.0, 0.0, 0.0, 0.0)",1.139,-0.262,-9.802,"(0.0, 0.0, 0.0, 0.0, 0.0, 0.0, 0.0, 0.0, 0.0)",0,0,0,,-0.4964,0.2506,0.5171,"(0.0, 0.0, 0.0, 0.0, 0.0, 0.0, 0.0, 0.0, 0.0)","b'$VNYMR,-151.950,+006.586,+001.596,-00.4964,+00.2506,+00.5171,+01.139,-00.262,-09.802,+00.001083,+00.001014,-00.000287*67\r\n'"
1679683298.9700913,13617,1679683298,947066068,IMU1_Frame,0,0,0,,0.059089735118180185,0.0004465702716700687,-0.9686880671108491,0.24114649575663144,"(0.0, 0.0, 0.0, 0.0, 0.0, 0.0, 0.0, 0.0, 0.0)",-0.001284,0.001045,-0.00046,"(0.0, 0.0, 0.0, 0.0, 0.0, 0.0, 0.0, 0.0, 0.0)",1.124,-0.236,-9.801,"(0.0, 0.0, 0.0, 0.0, 0.0, 0.0, 0.0, 0.0, 0.0)",0,0,0,,-0.4964,0.2506,0.5209,"(0.0, 0.0, 0.0, 0.0, 0.0, 0.0, 0.0, 0.0, 0.0)","b'$VNYMR,-151.950,+006.586,+001.594,-00.4964,+00.2506,+00.5209,+01.124,-00.236,-09.801,-00.001284,+00.001045,-00.000467*68\r\n'"
1679683299.0140116,13618,1679683298,972071647,IMU1_Frame,0,0,0,,0.059087638648426595,0.0004539923959784326,-0.9686922718386939,0.2411301045698099,"(0.0, 0.0, 0.0, 0.0, 0.0, 0.0, 0.0, 0.0, 0.0)",0.000418,0.001928,-0.00119,"(0.0, 0.0, 0.0, 0.0, 0.0, 0.0, 0.0, 0.0, 0.0)",1.099,-0.222,-9.725,"(0.0, 0.0, 0.0, 0.0, 0.0, 0.0, 0.0, 0.0, 0.0)",0,0,0,,-0.4942,0.2516,0.5184,"(0.0, 0.0, 0.0, 0.0, 0.0, 0.0, 0.0, 0.0, 0.0)","b'$VNYMR,-151.952,+006.586,+001.593,-00.4942,+00.2516,+00.5184,+01.099,-00.222,-09.725,+00.000418,+00.001928,-00.001194*6B\r\n'"
1679683299.014073,13619,1679683298,997088193,IMU1_Frame,0,0,0,,0.05907498006119688,0.00046878149512333267,-0.9686927207078818,0.24113137461193343,"(0.0, 0.0, 0.0, 0.0, 0.0, 0.0, 0.0, 0.0, 0.0)",0.000813,0.002062,0.00122,"(0.0, 0.0, 0.0, 0.0, 0.0, 0.0, 0.0, 0.0, 0.0)",1.123,-0.216,-9.763,"(0.0, 0.0, 0.0, 0.0, 0.0, 0.0, 0.0, 0.0, 0.0)",0,0,0,,-0.4942,0.2527,0.5171,"(0.0, 0.0, 0.0, 0.0, 0.0, 0.0, 0.0, 0.0, 0.0)","b'$VNYMR,-151.952,+006.585,+001.591,-00.4942,+00.2527,+00.5171,+01.123,-00.216,-09.763,+00.000813,+00.002062,+00.001220*6E\r\n'"
1679683299.0620756,13620,1679683299,22102832,IMU1_Frame,0,0,0,,0.05907498414983775,0.00046826596865167346,-0.9686948249392052,0.24112292116404363,"(0.0, 0.0, 0.0, 0.0, 0.0, 0.0, 0.0, 0.0, 0.0)",0.001374,0.001121,0.00098,"(0.0, 0.0, 0.0, 0.0, 0.0, 0.0, 0.0, 0.0, 0.0)",1.137,-0.257,-9.753,"(0.0, 0.0, 0.0, 0.0, 0.0, 0.0, 0.0, 0.0, 0.0)",0,0,0,,-0.4954,0.2461,0.5146,"(0.0, 0.0, 0.0, 0.0, 0.0, 0.0, 0.0, 0.0, 0.0)","b'$VNYMR,-151.953,+006.585,+001.591,-00.4954,+00.2461,+00.5146,+01.137,-00.257,-09.753,+00.001374,+00.001121,+00.000987*65\r\n'"
1679683299.0621333,13621,1679683299,47018527,IMU1_Frame,0,0,0,,0.05908132585680267,0.0004793527001932668,-0.9686922596212352,0.2411316513979382,"(0.0, 0.0, 0.0, 0.0, 0.0, 0.0, 0.0, 0.0, 0.0)",0.002142,0.001662,0.00158,"(0.0, 0.0, 0.0, 0.0, 0.0, 0.0, 0.0, 0.0, 0.0)",1.121,-0.235,-9.785,"(0.0, 0.0, 0.0, 0.0, 0.0, 0.0, 0.0, 0.0, 0.0)",0,0,0,,-0.4964,0.2517,0.5171,"(0.0, 0.0, 0.0, 0.0, 0.0, 0.0, 0.0, 0.0, 0.0)","b'$VNYMR,-151.952,+006.586,+001.590,-00.4964,+00.2517,+00.5171,+01.121,-00.235,-09.785,+00.002142,+00.001662,+00.001588*6F\r\n'"
1679683299.1100228,13622,1679683299,72114229,IMU1_Frame,0,0,0,,0.0590728716238293,0.00047775044188601117,-0.9686906122705143,0.24114034355869618,"(0.0, 0.0, 0.0, 0.0, 0.0, 0.0, 0.0, 0.0, 0.0)",0.001402,0.000391,0.00067,"(0.0, 0.0, 0.0, 0.0, 0.0, 0.0, 0.0, 0.0, 0.0)",1.121,-0.267,-9.769,"(0.0, 0.0, 0.0, 0.0, 0.0, 0.0, 0.0, 0.0, 0.0)",0,0,0,,-0.4922,0.2471,0.516,"(0.0, 0.0, 0.0, 0.0, 0.0, 0.0, 0.0, 0.0, 0.0)","b'$VNYMR,-151.951,+006.585,+001.590,-00.4922,+00.2471,+00.5160,+01.121,-00.267,-09.769,+00.001402,+00.000391,+00.000678*6E\r\n'"
1679683299.1100676,13623,1679683299,97130537,IMU1_Frame,0,0,0,,0.05907498414983775,0.00046826596865167346,-0.9686948249392052,0.24112292116404363,"(0.0, 0.0, 0.0, 0.0, 0.0, 0.0, 0.0, 0.0, 0.0)",0.001544,-0.0004,-0.00059,"(0.0, 0.0, 0.0, 0.0, 0.0, 0.0, 0.0, 0.0, 0.0)",1.123,-0.277,-9.757,"(0.0, 0.0, 0.0, 0.0, 0.0, 0.0, 0.0, 0.0, 0.0)",0,0,0,,-0.4986,0.2462,0.5171,"(0.0, 0.0, 0.0, 0.0, 0.0, 0.0, 0.0, 0.0, 0.0)","b'$VNYMR,-151.953,+006.585,+001.591,-00.4986,+00.2462,+00.5171,+01.123,-00.277,-09.757,+00.001544,-00.000400,-00.000590*66\r\n'"
1679683299.15395,13624,1679683299,122116804,IMU1_Frame,0,0,0,,0.05907075027866928,0.00044821037078762206,-0.9686994980237003,0.24110522204549978,"(0.0, 0.0, 0.0, 0.0, 0.0, 0.0, 0.0, 0.0, 0.0)",0.001175,0.000565,0.00042,"(0.0, 0.0, 0.0, 0.0, 0.0, 0.0, 0.0, 0.0, 0.0)",1.117,-0.271,-9.776,"(0.0, 0.0, 0.0, 0.0, 0.0, 0.0, 0.0, 0.0, 0.0)",0,0,0,,-0.4963,0.2528,0.5158,"(0.0, 0.0, 0.0, 0.0, 0.0, 0.0, 0.0, 0.0, 0.0)","b'$VNYMR,-151.955,+006.584,+001.593,-00.4963,+00.2528,+00.5158,+01.117,-00.271,-09.776,+00.001175,+00.000565,+00.000428*68\r\n'"
1679683299.157532,13625,1679683299,147031784,IMU1_Frame,0,0,0,,0.059074954583559144,0.0004318189012652001,-0.9686974016310335,0.24111264451843128,"(0.0, 0.0, 0.0, 0.0, 0.0, 0.0, 0.0, 0.0, 0.0)",0.001043,-0.00024,-0.00017,"(0.0, 0.0, 0.0, 0.0, 0.0, 0.0, 0.0, 0.0, 0.0)",1.098,-0.279,-9.802,"(0.0, 0.0, 0.0, 0.0, 0.0, 0.0, 0.0, 0.0, 0.0)",0,0,0,,-0.4976,0.2439,0.5184,"(0.0, 0.0, 0.0, 0.0, 0.0, 0.0, 0.0, 0.0, 0.0)","b'$VNYMR,-151.954,+006.584,+001.595,-00.4976,+00.2439,+00.5184,+01.098,-00.279,-09.802,+00.001043,-00.000240,-00.000177*62\r\n'"
1679683299.1981184,13626,1679683299,172067880,IMU1_Frame,0,0,0,,0.05908127042235588,0.0004059428811170433,-0.9686995166584335,0.24110264436827547,"(0.0, 0.0, 0.0, 0.0, 0.0, 0.0, 0.0, 0.0, 0.0)",0.000617,-0.000287,0.00032,"(0.0, 0.0, 0.0, 0.0, 0.0, 0.0, 0.0, 0.0, 0.0)",1.112,-0.294,-9.792,"(0.0, 0.0, 0.0, 0.0, 0.0, 0.0, 0.0, 0.0, 0.0)",0,0,0,,-0.4953,0.2494,0.5159,"(0.0, 0.0, 0.0, 0.0, 0.0, 0.0, 0.0, 0.0, 0.0)","b'$VNYMR,-151.955,+006.584,+001.598,-00.4953,+00.2494,+00.5159,+01.112,-00.294,-09.792,+00.000617,-00.000287,+00.000322*61\r\n'"
1679683299.241993,13627,1679683299,197080135,IMU1_Frame,0,0,0,,0.059077028338697365,0.0003869182999420972,-0.9686999802287195,0.241101852588852,"(0.0, 0.0, 0.0, 0.0, 0.0, 0.0, 0.0, 0.0, 0.0)",0.001213,0.00148,0.00077,"(0.0, 0.0, 0.0, 0.0, 0.0, 0.0, 0.0, 0.0, 0.0)",1.125,-0.29,-9.79,"(0.0, 0.0, 0.0, 0.0, 0.0, 0.0, 0.0, 0.0, 0.0)",0,0,0,,-0.4954,0.245,0.5134,"(0.0, 0.0, 0.0, 0.0, 0.0, 0.0, 0.0, 0.0, 0.0)","b'$VNYMR,-151.955,+006.583,+001.600,-00.4954,+00.2450,+00.5134,+01.125,-00.290,-09.790,+00.001213,+00.001480,+00.000770*66\r\n'"
1679683299.2420423,13628,1679683299,221957206,IMU1_Frame,0,0,0,,0.059081239577567585,0.00036949571470071794,-0.9687020907988727,0.241092367952176,"(0.0, 0.0, 0.0, 0.0, 0.0, 0.0, 0.0, 0.0, 0.0)",0.000539,6.3e-05,-0.00017,"(0.0, 0.0, 0.0, 0.0, 0.0, 0.0, 0.0, 0.0, 0.0)",1.121,-0.296,-9.762,"(0.0, 0.0, 0.0, 0.0, 0.0, 0.0, 0.0, 0.0, 0.0)",0,0,0,,-0.491,0.2516,0.5159,"(0.0, 0.0, 0.0, 0.0, 0.0, 0.0, 0.0, 0.0, 0.0)","b'$VNYMR,-151.956,+006.583,+001.602,-00.4910,+00.2516,+00.5159,+01.121,-00.296,-09.762,+00.000539,+00.000063,-00.000173*65\r\n'"
1679683299.2860794,13629,1679683299,247003793,IMU1_Frame,0,0,0,,0.05908757913111981,0.00038109802335452303,-0.9686974229131486,0.24110955103053186,"(0.0, 0.0, 0.0, 0.0, 0.0, 0.0, 0.0, 0.0, 0.0)",-0.001053,-0.000911,0.00011,"(0.0, 0.0, 0.0, 0.0, 0.0, 0.0, 0.0, 0.0, 0.0)",1.115,-0.27,-9.732,"(0.0, 0.0, 0.0, 0.0, 0.0, 0.0, 0.0, 0.0, 0.0)",0,0,0,,-0.4921,0.2538,0.5159,"(0.0, 0.0, 0.0, 0.0, 0.0, 0.0, 0.0, 0.0, 0.0)","b'$VNYMR,-151.954,+006.584,+001.601,-00.4921,+00.2538,+00.5159,+01.115,-00.270,-09.732,-00.001053,-00.000911,+00.000115*65\r\n'"
1679683299.286121,13630,1679683299,272136211,IMU1_Frame,0,0,0,,0.059102375219927644,0.00039378682064714586,-0.9686965060678481,0.2411095877547108,"(0.0, 0.0, 0.0, 0.0, 0.0, 0.0, 0.0, 0.0, 0.0)",-0.00108,0.000291,0.001,"(0.0, 0.0, 0.0, 0.0, 0.0, 0.0, 0.0, 0.0, 0.0)",1.145,-0.254,-9.719,"(0.0, 0.0, 0.0, 0.0, 0.0, 0.0, 0.0, 0.0, 0.0)",0,0,0,,-0.4923,0.2427,0.5173,"(0.0, 0.0, 0.0, 0.0, 0.0, 0.0, 0.0, 0.0, 0.0)","b'$VNYMR,-151.954,+006.586,+001.600,-00.4923,+00.2427,+00.5173,+01.145,-00.254,-09.719,-00.001080,+00.000291,+00.001006*60\r\n'"
1679683299.3339884,13631,1679683299,297052145,IMU1_Frame,0,0,0,,0.05910871768840376,0.0004048737680098207,-0.9686939416066558,0.24111831756427285,"(0.0, 0.0, 0.0, 0.0, 0.0, 0.0, 0.0, 0.0, 0.0)",0.000128,2.1e-05,0.0,"(0.0, 0.0, 0.0, 0.0, 0.0, 0.0, 0.0, 0.0, 0.0)",1.142,-0.278,-9.739,"(0.0, 0.0, 0.0, 0.0, 0.0, 0.0, 0.0, 0.0, 0.0)",0,0,0,,-0.4964,0.2472,0.5171,"(0.0, 0.0, 0.0, 0.0, 0.0, 0.0, 0.0, 0.0, 0.0)","b'$VNYMR,-151.953,+006.587,+001.599,-00.4964,+00.2472,+00.5171,+01.142,-00.278,-09.739,+00.000128,+00.000021,+00.000001*64\r\n'"
1679683299.3340402,13632,1679683299,322037458,IMU1_Frame,0,0,0,,0.05910661353188892,0.00041332721735687535,-0.9686939380365804,0.24111883337596188,"(0.0, 0.0, 0.0, 0.0, 0.0, 0.0, 0.0, 0.0, 0.0)",-0.000851,-0.001175,-9e-05,"(0.0, 0.0, 0.0, 0.0, 0.0, 0.0, 0.0, 0.0, 0.0)",1.117,-0.262,-9.807,"(0.0, 0.0, 0.0, 0.0, 0.0, 0.0, 0.0, 0.0, 0.0)",0,0,0,,-0.4985,0.2473,0.5145,"(0.0, 0.0, 0.0, 0.0, 0.0, 0.0, 0.0, 0.0, 0.0)","b'$VNYMR,-151.953,+006.587,+001.598,-00.4985,+00.2473,+00.5145,+01.117,-00.262,-09.807,-00.000851,-00.001175,-00.000092*6F\r\n'"
1679683299.3779988,13633,1679683299,347033262,IMU1_Frame,0,0,0,,0.05909817421371884,0.0004096623064102651,-0.9687007070740566,0.2410937122689477,"(0.0, 0.0, 0.0, 0.0, 0.0, 0.0, 0.0, 0.0, 0.0)",-0.000254,-0.000116,-0.00019,"(0.0, 0.0, 0.0, 0.0, 0.0, 0.0, 0.0, 0.0, 0.0)",1.124,-0.236,-9.783,"(0.0, 0.0, 0.0, 0.0, 0.0, 0.0, 0.0, 0.0, 0.0)",0,0,0,,-0.4911,0.2493,0.516,"(0.0, 0.0, 0.0, 0.0, 0.0, 0.0, 0.0, 0.0, 0.0)","b'$VNYMR,-151.956,+006.586,+001.598,-00.4911,+00.2493,+00.5160,+01.124,-00.236,-09.783,-00.000254,-00.000116,-00.000198*6D\r\n'"
1679683299.3827686,13634,1679683299,371913194,IMU1_Frame,0,0,0,,0.05909185857629911,0.0004355385052374483,-0.9686985920272253,0.24110371287203447,"(0.0, 0.0, 0.0, 0.0, 0.0, 0.0, 0.0, 0.0, 0.0)",0.000414,0.001186,-0.00036,"(0.0, 0.0, 0.0, 0.0, 0.0, 0.0, 0.0, 0.0, 0.0)",1.128,-0.237,-9.816,"(0.0, 0.0, 0.0, 0.0, 0.0, 0.0, 0.0, 0.0, 0.0)",0,0,0,,-0.4932,0.2472,0.5147,"(0.0, 0.0, 0.0, 0.0, 0.0, 0.0, 0.0, 0.0, 0.0)","b'$VNYMR,-151.955,+006.586,+001.595,-00.4932,+00.2472,+00.5147,+01.128,-00.237,-09.816,+00.000414,+00.001186,-00.000366*6F\r\n'"
1679683299.4260046,13635,1679683299,396894216,IMU1_Frame,0,0,0,,0.05908130828790144,0.0004413588523981965,-0.9687011490772689,0.24109601404779032,"(0.0, 0.0, 0.0, 0.0, 0.0, 0.0, 0.0, 0.0, 0.0)",0.000489,-0.000593,-0.00033,"(0.0, 0.0, 0.0, 0.0, 0.0, 0.0, 0.0, 0.0, 0.0)",1.103,-0.228,-9.808,"(0.0, 0.0, 0.0, 0.0, 0.0, 0.0, 0.0, 0.0, 0.0)",0,0,0,,-0.4932,0.2472,0.5121,"(0.0, 0.0, 0.0, 0.0, 0.0, 0.0, 0.0, 0.0, 0.0)","b'$VNYMR,-151.956,+006.585,+001.594,-00.4932,+00.2472,+00.5121,+01.103,-00.228,-09.808,+00.000489,-00.000593,-00.000338*6E\r\n'"
1679683299.4699998,13636,1679683299,421989679,IMU1_Frame,0,0,0,,0.05908130828790144,0.0004413588523981965,-0.9687011490772689,0.24109601404779032,"(0.0, 0.0, 0.0, 0.0, 0.0, 0.0, 0.0, 0.0, 0.0)",0.000585,0.001041,0.00062,"(0.0, 0.0, 0.0, 0.0, 0.0, 0.0, 0.0, 0.0, 0.0)",1.104,-0.239,-9.794,"(0.0, 0.0, 0.0, 0.0, 0.0, 0.0, 0.0, 0.0, 0.0)",0,0,0,,-0.4953,0.2483,0.5146,"(0.0, 0.0, 0.0, 0.0, 0.0, 0.0, 0.0, 0.0, 0.0)","b'$VNYMR,-151.956,+006.585,+001.594,-00.4953,+00.2483,+00.5146,+01.104,-00.239,-09.794,+00.000585,+00.001041,+00.000625*64\r\n'"
1679683299.470046,13637,1679683299,446878671,IMU1_Frame,0,0,0,,0.05908130057573769,0.00044239001568692655,-0.9686969410104691,0.24111292103558765,"(0.0, 0.0, 0.0, 0.0, 0.0, 0.0, 0.0, 0.0, 0.0)",0.001863,0.001153,0.00184,"(0.0, 0.0, 0.0, 0.0, 0.0, 0.0, 0.0, 0.0, 0.0)",1.115,-0.27,-9.81,"(0.0, 0.0, 0.0, 0.0, 0.0, 0.0, 0.0, 0.0, 0.0)",0,0,0,,-0.4964,0.2506,0.5146,"(0.0, 0.0, 0.0, 0.0, 0.0, 0.0, 0.0, 0.0, 0.0)","b'$VNYMR,-151.954,+006.585,+001.594,-00.4964,+00.2506,+00.5146,+01.115,-00.270,-09.810,+00.001863,+00.001153,+00.001841*6B\r\n'"
1679683299.513914,13638,1679683299,471828699,IMU1_Frame,0,0,0,,0.05909606662092708,0.0004186315252816628,-0.968698599481265,0.24110268148781902,"(0.0, 0.0, 0.0, 0.0, 0.0, 0.0, 0.0, 0.0, 0.0)",0.002209,0.000511,0.00041,"(0.0, 0.0, 0.0, 0.0, 0.0, 0.0, 0.0, 0.0, 0.0)",1.094,-0.285,-9.786,"(0.0, 0.0, 0.0, 0.0, 0.0, 0.0, 0.0, 0.0, 0.0)",0,0,0,,-0.4974,0.2551,0.517,"(0.0, 0.0, 0.0, 0.0, 0.0, 0.0, 0.0, 0.0, 0.0)","b'$VNYMR,-151.955,+006.586,+001.597,-00.4974,+00.2551,+00.5170,+01.094,-00.285,-09.786,+00.002209,+00.000511,+00.000412*63\r\n'"
1679683299.5139484,13639,1679683299,496912479,IMU1_Frame,0,0,0,,0.05910026411017603,0.00040327178663265677,-0.9686922942818178,0.24112701041775048,"(0.0, 0.0, 0.0, 0.0, 0.0, 0.0, 0.0, 0.0, 0.0)",0.001058,-0.000724,0.00024,"(0.0, 0.0, 0.0, 0.0, 0.0, 0.0, 0.0, 0.0, 0.0)",1.13,-0.276,-9.756,"(0.0, 0.0, 0.0, 0.0, 0.0, 0.0, 0.0, 0.0, 0.0)",0,0,0,,-0.4921,0.2505,0.5172,"(0.0, 0.0, 0.0, 0.0, 0.0, 0.0, 0.0, 0.0, 0.0)","b'$VNYMR,-151.952,+006.586,+001.599,-00.4921,+00.2505,+00.5172,+01.130,-00.276,-09.756,+00.001058,-00.000724,+00.000249*68\r\n'"
1679683299.5577645,13640,1679683299,522045850,IMU1_Frame,0,0,0,,0.059102371781238915,0.00039430258615380694,-0.9686944019528806,0.24111804121727154,"(0.0, 0.0, 0.0, 0.0, 0.0, 0.0, 0.0, 0.0, 0.0)",0.0014,9.5e-05,0.00088,"(0.0, 0.0, 0.0, 0.0, 0.0, 0.0, 0.0, 0.0, 0.0)",1.129,-0.25,-9.785,"(0.0, 0.0, 0.0, 0.0, 0.0, 0.0, 0.0, 0.0, 0.0)",0,0,0,,-0.4975,0.2439,0.5159,"(0.0, 0.0, 0.0, 0.0, 0.0, 0.0, 0.0, 0.0, 0.0)","b'$VNYMR,-151.953,+006.586,+001.600,-00.4975,+00.2439,+00.5159,+01.129,-00.250,-09.785,+00.001400,+00.000095,+00.000885*66\r\n'"
1679683299.5577867,13641,1679683299,546664714,IMU1_Frame,0,0,0,,0.05910447593084104,0.0003858491327590457,-0.9686944053569345,0.2411175254425988,"(0.0, 0.0, 0.0, 0.0, 0.0, 0.0, 0.0, 0.0, 0.0)",0.000566,-0.000637,-0.00023,"(0.0, 0.0, 0.0, 0.0, 0.0, 0.0, 0.0, 0.0, 0.0)",1.12,-0.279,-9.773,"(0.0, 0.0, 0.0, 0.0, 0.0, 0.0, 0.0, 0.0, 0.0)",0,0,0,,-0.4954,0.2472,0.5159,"(0.0, 0.0, 0.0, 0.0, 0.0, 0.0, 0.0, 0.0, 0.0)","b'$VNYMR,-151.953,+006.586,+001.601,-00.4954,+00.2472,+00.5159,+01.120,-00.279,-09.773,+00.000566,-00.000637,-00.000237*6D\r\n'"
1679683299.601752,13642,1679683299,571555376,IMU1_Frame,0,0,0,,0.059104465809079576,0.00038739648418814436,-0.968688092582914,0.24114288572019515,"(0.0, 0.0, 0.0, 0.0, 0.0, 0.0, 0.0, 0.0, 0.0)",0.001094,0.000655,0.00033,"(0.0, 0.0, 0.0, 0.0, 0.0, 0.0, 0.0, 0.0, 0.0)",1.143,-0.265,-9.752,"(0.0, 0.0, 0.0, 0.0, 0.0, 0.0, 0.0, 0.0, 0.0)",0,0,0,,-0.4942,0.2516,0.5184,"(0.0, 0.0, 0.0, 0.0, 0.0, 0.0, 0.0, 0.0, 0.0)","b'$VNYMR,-151.950,+006.586,+001.601,-00.4942,+00.2516,+00.5184,+01.143,-00.265,-09.752,+00.001094,+00.000655,+00.000336*6C\r\n'"
1679683299.60176,13643,1679683299,596610546,IMU1_Frame,0,0,0,,0.059121365807863854,0.0003916323995306059,-0.9686871788588096,0.24114240656433042,"(0.0, 0.0, 0.0, 0.0, 0.0, 0.0, 0.0, 0.0, 0.0)",-0.000153,0.00043,0.00024,"(0.0, 0.0, 0.0, 0.0, 0.0, 0.0, 0.0, 0.0, 0.0)",1.132,-0.278,-9.752,"(0.0, 0.0, 0.0, 0.0, 0.0, 0.0, 0.0, 0.0, 0.0)",0,0,0,,-0.4953,0.2505,0.5222,"(0.0, 0.0, 0.0, 0.0, 0.0, 0.0, 0.0, 0.0, 0.0)","b'$VNYMR,-151.950,+006.588,+001.601,-00.4953,+00.2505,+00.5222,+01.132,-00.278,-09.752,-00.000153,+00.000430,+00.000249*60\r\n'"
1679683299.6497533,13644,1679683299,621745347,IMU1_Frame,0,0,0,,0.059129815800502805,0.00039375035715718057,-0.9686867218861028,0.24114216695885193,"(0.0, 0.0, 0.0, 0.0, 0.0, 0.0, 0.0, 0.0, 0.0)",-0.000419,-8e-05,0.00045,"(0.0, 0.0, 0.0, 0.0, 0.0, 0.0, 0.0, 0.0, 0.0)",1.194,-0.234,-9.726,"(0.0, 0.0, 0.0, 0.0, 0.0, 0.0, 0.0, 0.0, 0.0)",0,0,0,,-0.4964,0.2483,0.5171,"(0.0, 0.0, 0.0, 0.0, 0.0, 0.0, 0.0, 0.0, 0.0)","b'$VNYMR,-151.950,+006.589,+001.601,-00.4964,+00.2483,+00.5171,+01.194,-00.234,-09.726,-00.000419,-00.000080,+00.000452*66\r\n'"
1679683299.6506019,13645,1679683299,646637678,IMU1_Frame,0,0,0,,0.05913826578863875,0.0003958683147537688,-0.9686862648396264,0.24114192733500944,"(0.0, 0.0, 0.0, 0.0, 0.0, 0.0, 0.0, 0.0, 0.0)",-0.000493,0.000699,-3e-05,"(0.0, 0.0, 0.0, 0.0, 0.0, 0.0, 0.0, 0.0, 0.0)",1.151,-0.279,-9.773,"(0.0, 0.0, 0.0, 0.0, 0.0, 0.0, 0.0, 0.0, 0.0)",0,0,0,,-0.4964,0.2495,0.5184,"(0.0, 0.0, 0.0, 0.0, 0.0, 0.0, 0.0, 0.0, 0.0)","b'$VNYMR,-151.950,+006.590,+001.601,-00.4964,+00.2495,+00.5184,+01.151,-00.279,-09.773,-00.000493,+00.000699,-00.000033*6C\r\n'"
1679683299.694023,13646,1679683299,671839952,IMU1_Frame,0,0,0,,0.05913616142608866,0.00040432169710873274,-0.9686862613481388,0.2411424434045534,"(0.0, 0.0, 0.0, 0.0, 0.0, 0.0, 0.0, 0.0, 0.0)",-0.00094,0.001443,-0.00054,"(0.0, 0.0, 0.0, 0.0, 0.0, 0.0, 0.0, 0.0, 0.0)",1.106,-0.283,-9.763,"(0.0, 0.0, 0.0, 0.0, 0.0, 0.0, 0.0, 0.0, 0.0)",0,0,0,,-0.4932,0.2483,0.5197,"(0.0, 0.0, 0.0, 0.0, 0.0, 0.0, 0.0, 0.0, 0.0)","b'$VNYMR,-151.950,+006.590,+001.600,-00.4932,+00.2483,+00.5197,+01.106,-00.283,-09.763,-00.000940,+00.001443,-00.000547*6C\r\n'"
1679683299.7380729,13647,1679683299,696813106,IMU1_Frame,0,0,0,,0.05912561064812638,0.00041014116154019717,-0.9686888192008336,0.24113474553661626,"(0.0, 0.0, 0.0, 0.0, 0.0, 0.0, 0.0, 0.0, 0.0)",-7.4e-05,0.000261,-0.00037,"(0.0, 0.0, 0.0, 0.0, 0.0, 0.0, 0.0, 0.0, 0.0)",1.123,-0.269,-9.757,"(0.0, 0.0, 0.0, 0.0, 0.0, 0.0, 0.0, 0.0, 0.0)",0,0,0,,-0.4953,0.2494,0.5159,"(0.0, 0.0, 0.0, 0.0, 0.0, 0.0, 0.0, 0.0, 0.0)","b'$VNYMR,-151.951,+006.589,+001.599,-00.4953,+00.2494,+00.5159,+01.123,-00.269,-09.757,-00.000074,+00.000261,-00.000375*6F\r\n'"
1679683299.738106,13648,1679683299,721924066,IMU1_Frame,0,0,0,,0.059119264930288414,0.00039956987696507067,-0.9686892797363853,0.24113446908689584,"(0.0, 0.0, 0.0, 0.0, 0.0, 0.0, 0.0, 0.0, 0.0)",-0.000395,0.000991,-0.0,"(0.0, 0.0, 0.0, 0.0, 0.0, 0.0, 0.0, 0.0, 0.0)",1.114,-0.271,-9.763,"(0.0, 0.0, 0.0, 0.0, 0.0, 0.0, 0.0, 0.0, 0.0)",0,0,0,,-0.4964,0.2472,0.5146,"(0.0, 0.0, 0.0, 0.0, 0.0, 0.0, 0.0, 0.0, 0.0)","b'$VNYMR,-151.951,+006.588,+001.600,-00.4964,+00.2472,+00.5146,+01.114,-00.271,-09.763,-00.000395,+00.000991,-00.000000*6C\r\n'"
1679683299.7819803,13649,1679683299,746751308,IMU1_Frame,0,0,0,,0.05911927189509397,0.00039853805107986466,-0.9686934881792709,0.24111756223280947,"(0.0, 0.0, 0.0, 0.0, 0.0, 0.0, 0.0, 0.0, 0.0)",0.000534,0.001089,0.00059,"(0.0, 0.0, 0.0, 0.0, 0.0, 0.0, 0.0, 0.0, 0.0)",1.117,-0.256,-9.756,"(0.0, 0.0, 0.0, 0.0, 0.0, 0.0, 0.0, 0.0, 0.0)",0,0,0,,-0.4942,0.2505,0.5146,"(0.0, 0.0, 0.0, 0.0, 0.0, 0.0, 0.0, 0.0, 0.0)","b'$VNYMR,-151.953,+006.588,+001.600,-00.4942,+00.2505,+00.5146,+01.117,-00.256,-09.756,+00.000534,+00.001089,+00.000591*6A\r\n'"
1679683299.7837334,13650,1679683299,771864414,IMU1_Frame,0,0,0,,0.05910236833804927,0.00039481835163045036,-0.9686922977641429,0.2411264946614703,"(0.0, 0.0, 0.0, 0.0, 0.0, 0.0, 0.0, 0.0, 0.0)",0.000759,-0.000132,0.00051,"(0.0, 0.0, 0.0, 0.0, 0.0, 0.0, 0.0, 0.0, 0.0)",1.108,-0.254,-9.782,"(0.0, 0.0, 0.0, 0.0, 0.0, 0.0, 0.0, 0.0, 0.0)",0,0,0,,-0.4922,0.2471,0.5172,"(0.0, 0.0, 0.0, 0.0, 0.0, 0.0, 0.0, 0.0, 0.0)","b'$VNYMR,-151.952,+006.586,+001.600,-00.4922,+00.2471,+00.5172,+01.108,-00.254,-09.782,+00.000759,-00.000132,+00.000519*6C\r\n'"
1679683299.8299615,13651,1679683299,796820402,IMU1_Frame,0,0,0,,0.0590939182928511,0.0003927005453816662,-0.9686927545382026,0.24112673413014415,"(0.0, 0.0, 0.0, 0.0, 0.0, 0.0, 0.0, 0.0, 0.0)",0.000333,0.001579,0.00092,"(0.0, 0.0, 0.0, 0.0, 0.0, 0.0, 0.0, 0.0, 0.0)",1.126,-0.256,-9.792,"(0.0, 0.0, 0.0, 0.0, 0.0, 0.0, 0.0, 0.0, 0.0)",0,0,0,,-0.4921,0.2516,0.5185,"(0.0, 0.0, 0.0, 0.0, 0.0, 0.0, 0.0, 0.0, 0.0)","b'$VNYMR,-151.952,+006.585,+001.600,-00.4921,+00.2516,+00.5185,+01.126,-00.256,-09.792,+00.000333,+00.001579,+00.000926*6F\r\n'"
1679683299.8740263,13652,1679683299,821861267,IMU1_Frame,0,0,0,,0.059108699966185674,0.0004074528719743391,-0.9686834199132099,0.24116058458154493,"(0.0, 0.0, 0.0, 0.0, 0.0, 0.0, 0.0, 0.0, 0.0)",-0.000341,0.000395,-0.00055,"(0.0, 0.0, 0.0, 0.0, 0.0, 0.0, 0.0, 0.0, 0.0)",1.155,-0.223,-9.759,"(0.0, 0.0, 0.0, 0.0, 0.0, 0.0, 0.0, 0.0, 0.0)",0,0,0,,-0.4911,0.2504,0.5159,"(0.0, 0.0, 0.0, 0.0, 0.0, 0.0, 0.0, 0.0, 0.0)","b'$VNYMR,-151.948,+006.587,+001.599,-00.4911,+00.2504,+00.5159,+01.155,-00.223,-09.759,-00.000341,+00.000395,-00.000550*68\r\n'"
1679683299.8740773,13653,1679683299,846826553,IMU1_Frame,0,0,0,,0.059106595440821516,0.00041590622950219737,-0.968683416320628,0.24116110039307767,"(0.0, 0.0, 0.0, 0.0, 0.0, 0.0, 0.0, 0.0, 0.0)",0.001134,0.000198,0.00111,"(0.0, 0.0, 0.0, 0.0, 0.0, 0.0, 0.0, 0.0, 0.0)",1.148,-0.231,-9.763,"(0.0, 0.0, 0.0, 0.0, 0.0, 0.0, 0.0, 0.0, 0.0)",0,0,0,,-0.4921,0.2516,0.5159,"(0.0, 0.0, 0.0, 0.0, 0.0, 0.0, 0.0, 0.0, 0.0)","b'$VNYMR,-151.948,+006.587,+001.598,-00.4921,+00.2516,+00.5159,+01.148,-00.231,-09.763,+00.001134,+00.000198,+00.001112*62\r\n'"
1679683299.9220772,13654,1679683299,871736764,IMU1_Frame,0,0,0,,0.05911502711124055,0.0004206037027271372,-0.9686724358206771,0.24120312755724913,"(0.0, 0.0, 0.0, 0.0, 0.0, 0.0, 0.0, 0.0, 0.0)",0.000755,-0.00113,0.00033,"(0.0, 0.0, 0.0, 0.0, 0.0, 0.0, 0.0, 0.0, 0.0)",1.132,-0.252,-9.761,"(0.0, 0.0, 0.0, 0.0, 0.0, 0.0, 0.0, 0.0, 0.0)",0,0,0,,-0.4941,0.2561,0.5145,"(0.0, 0.0, 0.0, 0.0, 0.0, 0.0, 0.0, 0.0, 0.0)","b'$VNYMR,-151.943,+006.588,+001.598,-00.4941,+00.2561,+00.5145,+01.132,-00.252,-09.761,+00.000755,-00.001130,+00.000339*68\r\n'"
1679683299.9221249,13655,1679683299,896727800,IMU1_Frame,0,0,0,,0.0591234584797404,0.00042530191250972,-0.968661453423634,0.24124515420395684,"(0.0, 0.0, 0.0, 0.0, 0.0, 0.0, 0.0, 0.0, 0.0)",0.001478,0.001521,0.00088,"(0.0, 0.0, 0.0, 0.0, 0.0, 0.0, 0.0, 0.0, 0.0)",1.2,-0.269,-9.698,"(0.0, 0.0, 0.0, 0.0, 0.0, 0.0, 0.0, 0.0, 0.0)",0,0,0,,-0.4952,0.2595,0.517,"(0.0, 0.0, 0.0, 0.0, 0.0, 0.0, 0.0, 0.0, 0.0)","b'$VNYMR,-151.938,+006.589,+001.598,-00.4952,+00.2595,+00.5170,+01.200,-00.269,-09.698,+00.001478,+00.001521,+00.000884*65\r\n'"
1679683299.9660084,13656,1679683299,921809673,IMU1_Frame,0,0,0,,0.05912764393519483,0.00041200748374253457,-0.968646722126894,0.24130329397944414,"(0.0, 0.0, 0.0, 0.0, 0.0, 0.0, 0.0, 0.0, 0.0)",0.000195,-0.001655,0.00147,"(0.0, 0.0, 0.0, 0.0, 0.0, 0.0, 0.0, 0.0, 0.0)",1.165,-0.26,-9.714,"(0.0, 0.0, 0.0, 0.0, 0.0, 0.0, 0.0, 0.0, 0.0)",0,0,0,,-0.4899,0.2549,0.5185,"(0.0, 0.0, 0.0, 0.0, 0.0, 0.0, 0.0, 0.0, 0.0)","b'$VNYMR,-151.931,+006.589,+001.600,-00.4899,+00.2549,+00.5185,+01.165,-00.260,-09.714,+00.000195,-00.001655,+00.001471*69\r\n'"
1679683299.96606,13657,1679683299,946651458,IMU1_Frame,0,0,0,,0.059138185141564215,0.00040773811739737605,-0.9686378450410108,0.24133635027093736,"(0.0, 0.0, 0.0, 0.0, 0.0, 0.0, 0.0, 0.0, 0.0)",0.002106,-0.000248,-0.00024,"(0.0, 0.0, 0.0, 0.0, 0.0, 0.0, 0.0, 0.0, 0.0)",1.082,-0.258,-9.794,"(0.0, 0.0, 0.0, 0.0, 0.0, 0.0, 0.0, 0.0, 0.0)",0,0,0,,-0.4921,0.2516,0.5159,"(0.0, 0.0, 0.0, 0.0, 0.0, 0.0, 0.0, 0.0, 0.0)","b'$VNYMR,-151.927,+006.590,+001.601,-00.4921,+00.2516,+00.5159,+01.082,-00.258,-09.794,+00.002106,-00.000248,-00.000244*63\r\n'"
1679683300.0139995,13658,1679683299,971738815,IMU1_Frame,0,0,0,,0.059142386994242936,0.0003923805418858256,-0.9686315335340525,0.24136067687509358,"(0.0, 0.0, 0.0, 0.0, 0.0, 0.0, 0.0, 0.0, 0.0)",-1e-06,-0.001361,0.00019,"(0.0, 0.0, 0.0, 0.0, 0.0, 0.0, 0.0, 0.0, 0.0)",1.126,-0.275,-9.772,"(0.0, 0.0, 0.0, 0.0, 0.0, 0.0, 0.0, 0.0, 0.0)",0,0,0,,-0.4921,0.2516,0.5134,"(0.0, 0.0, 0.0, 0.0, 0.0, 0.0, 0.0, 0.0, 0.0)","b'$VNYMR,-151.924,+006.590,+001.603,-00.4921,+00.2516,+00.5134,+01.126,-00.275,-09.772,-00.000001,-00.001361,+00.000194*60\r\n'"
1679683300.0140436,13659,1679683299,996795415,IMU1_Frame,0,0,0,,0.059150826144655146,0.0003960489897579852,-0.9686247573717819,0.24138579560127177,"(0.0, 0.0, 0.0, 0.0, 0.0, 0.0, 0.0, 0.0, 0.0)",2.7e-05,0.000933,0.00039,"(0.0, 0.0, 0.0, 0.0, 0.0, 0.0, 0.0, 0.0, 0.0)",1.108,-0.264,-9.792,"(0.0, 0.0, 0.0, 0.0, 0.0, 0.0, 0.0, 0.0, 0.0)",0,0,0,,-0.4953,0.2528,0.512,"(0.0, 0.0, 0.0, 0.0, 0.0, 0.0, 0.0, 0.0, 0.0)","b'$VNYMR,-151.921,+006.591,+001.603,-00.4953,+00.2528,+00.5120,+01.108,-00.264,-09.792,+00.000027,+00.000933,+00.000394*61\r\n'"
1679683300.0579703,13660,1679683300,21696329,IMU1_Frame,0,0,0,,0.05914236291473285,0.0003959933439833651,-0.9686167878420694,0.2414198467579762,"(0.0, 0.0, 0.0, 0.0, 0.0, 0.0, 0.0, 0.0, 0.0)",0.001264,-0.000104,-0.00093,"(0.0, 0.0, 0.0, 0.0, 0.0, 0.0, 0.0, 0.0, 0.0)",1.074,-0.269,-9.877,"(0.0, 0.0, 0.0, 0.0, 0.0, 0.0, 0.0, 0.0, 0.0)",0,0,0,,-0.4911,0.2504,0.5134,"(0.0, 0.0, 0.0, 0.0, 0.0, 0.0, 0.0, 0.0, 0.0)","b'$VNYMR,-151.917,+006.590,+001.603,-00.4911,+00.2504,+00.5134,+01.074,-00.269,-09.877,+00.001264,-00.000104,-00.000938*6F\r\n'"
1679683300.0590339,13661,1679683300,46719551,IMU1_Frame,0,0,0,,0.05914445613433298,0.00038960509912406606,-0.9686083635463726,0.24145314159161088,"(0.0, 0.0, 0.0, 0.0, 0.0, 0.0, 0.0, 0.0, 0.0)",0.000403,0.001136,-0.00029,"(0.0, 0.0, 0.0, 0.0, 0.0, 0.0, 0.0, 0.0, 0.0)",1.095,-0.271,-9.776,"(0.0, 0.0, 0.0, 0.0, 0.0, 0.0, 0.0, 0.0, 0.0)",0,0,0,,-0.4931,0.2527,0.5146,"(0.0, 0.0, 0.0, 0.0, 0.0, 0.0, 0.0, 0.0, 0.0)","b'$VNYMR,-151.913,+006.590,+001.604,-00.4931,+00.2527,+00.5146,+01.095,-00.271,-09.776,+00.000403,+00.001136,-00.000292*69\r\n'"
1679683300.1019804,13662,1679683300,71858406,IMU1_Frame,0,0,0,,0.05915289858147117,0.00039275820982746096,-0.9686036922633987,0.24146980694097114,"(0.0, 0.0, 0.0, 0.0, 0.0, 0.0, 0.0, 0.0, 0.0)",0.000118,-0.000162,-0.00043,"(0.0, 0.0, 0.0, 0.0, 0.0, 0.0, 0.0, 0.0, 0.0)",1.14,-0.276,-9.72,"(0.0, 0.0, 0.0, 0.0, 0.0, 0.0, 0.0, 0.0, 0.0)",0,0,0,,-0.4941,0.2572,0.5145,"(0.0, 0.0, 0.0, 0.0, 0.0, 0.0, 0.0, 0.0, 0.0)","b'$VNYMR,-151.911,+006.591,+001.604,-00.4941,+00.2572,+00.5145,+01.140,-00.276,-09.720,+00.000118,-00.000162,-00.000437*63\r\n'"
1679683300.1459877,13663,1679683300,96718311,IMU1_Frame,0,0,0,,0.05915288138785198,0.00039533924155862876,-0.9685931552334215,0.24151207002003794,"(0.0, 0.0, 0.0, 0.0, 0.0, 0.0, 0.0, 0.0, 0.0)",0.000557,0.000714,-0.00042,"(0.0, 0.0, 0.0, 0.0, 0.0, 0.0, 0.0, 0.0, 0.0)",1.117,-0.274,-9.807,"(0.0, 0.0, 0.0, 0.0, 0.0, 0.0, 0.0, 0.0, 0.0)",0,0,0,,-0.4963,0.2561,0.5158,"(0.0, 0.0, 0.0, 0.0, 0.0, 0.0, 0.0, 0.0, 0.0)","b'$VNYMR,-151.906,+006.591,+001.604,-00.4963,+00.2561,+00.5158,+01.117,-00.274,-09.807,+00.000557,+00.000714,-00.000421*68\r\n'"
1679683300.1460557,13664,1679683300,121748685,IMU1_Frame,0,0,0,,0.05915497543507036,0.00038895157012524065,-0.9685847277128359,0.2415453639368881,"(0.0, 0.0, 0.0, 0.0, 0.0, 0.0, 0.0, 0.0, 0.0)",0.0002,0.000259,-5e-05,"(0.0, 0.0, 0.0, 0.0, 0.0, 0.0, 0.0, 0.0, 0.0)",1.089,-0.252,-9.777,"(0.0, 0.0, 0.0, 0.0, 0.0, 0.0, 0.0, 0.0, 0.0)",0,0,0,,-0.4932,0.2494,0.5121,"(0.0, 0.0, 0.0, 0.0, 0.0, 0.0, 0.0, 0.0, 0.0)","b'$VNYMR,-151.902,+006.591,+001.605,-00.4932,+00.2494,+00.5121,+01.089,-00.252,-09.777,+00.000200,+00.000259,-00.000059*64\r\n'"
1679683300.1899586,13665,1679683300,146677732,IMU1_Frame,0,0,0,,0.05915496523206998,0.0003905002436271794,-0.9685784037380674,0.24157072134298344,"(0.0, 0.0, 0.0, 0.0, 0.0, 0.0, 0.0, 0.0, 0.0)",0.00133,0.001097,0.00047,"(0.0, 0.0, 0.0, 0.0, 0.0, 0.0, 0.0, 0.0, 0.0)",1.112,-0.262,-9.828,"(0.0, 0.0, 0.0, 0.0, 0.0, 0.0, 0.0, 0.0, 0.0)",0,0,0,,-0.4921,0.2505,0.5172,"(0.0, 0.0, 0.0, 0.0, 0.0, 0.0, 0.0, 0.0, 0.0)","b'$VNYMR,-151.899,+006.591,+001.605,-00.4921,+00.2505,+00.5172,+01.112,-00.262,-09.828,+00.001330,+00.001097,+00.000472*66\r\n'"
1679683300.190011,13666,1679683300,171620607,IMU1_Frame,0,0,0,,0.059163400518230345,0.0003946871701578751,-0.9685695137341879,0.24160429078531653,"(0.0, 0.0, 0.0, 0.0, 0.0, 0.0, 0.0, 0.0, 0.0)",-0.000439,0.001072,0.00105,"(0.0, 0.0, 0.0, 0.0, 0.0, 0.0, 0.0, 0.0, 0.0)",1.168,-0.243,-9.723,"(0.0, 0.0, 0.0, 0.0, 0.0, 0.0, 0.0, 0.0, 0.0)",0,0,0,,-0.4889,0.2526,0.5147,"(0.0, 0.0, 0.0, 0.0, 0.0, 0.0, 0.0, 0.0, 0.0)","b'$VNYMR,-151.895,+006.592,+001.605,-00.4889,+00.2526,+00.5147,+01.168,-00.243,-09.723,-00.000439,+00.001072,+00.001055*65\r\n'"
1679683300.2339914,13667,1679683300,196603536,IMU1_Frame,0,0,0,,0.05915494126739731,0.00039411381408906154,-0.9685636452152971,0.24162988797995985,"(0.0, 0.0, 0.0, 0.0, 0.0, 0.0, 0.0, 0.0, 0.0)",0.000406,-0.000414,-0.00041,"(0.0, 0.0, 0.0, 0.0, 0.0, 0.0, 0.0, 0.0, 0.0)",1.136,-0.243,-9.747,"(0.0, 0.0, 0.0, 0.0, 0.0, 0.0, 0.0, 0.0, 0.0)",0,0,0,,-0.4846,0.2547,0.5148,"(0.0, 0.0, 0.0, 0.0, 0.0, 0.0, 0.0, 0.0, 0.0)","b'$VNYMR,-151.892,+006.591,+001.605,-00.4846,+00.2547,+00.5148,+01.136,-00.243,-09.747,+00.000406,-00.000414,-00.000415*6D\r\n'"
1679683300.23406,13668,1679683300,221697330,IMU1_Frame,0,0,0,,0.05916337629777715,0.0003983012558942539,-0.9685547531607939,0.24166345687917093,"(0.0, 0.0, 0.0, 0.0, 0.0, 0.0, 0.0, 0.0, 0.0)",0.000201,0.000131,0.00014,"(0.0, 0.0, 0.0, 0.0, 0.0, 0.0, 0.0, 0.0, 0.0)",1.153,-0.224,-9.775,"(0.0, 0.0, 0.0, 0.0, 0.0, 0.0, 0.0, 0.0, 0.0)",0,0,0,,-0.489,0.2493,0.5147,"(0.0, 0.0, 0.0, 0.0, 0.0, 0.0, 0.0, 0.0, 0.0)","b'$VNYMR,-151.888,+006.592,+001.605,-00.4890,+00.2493,+00.5147,+01.153,-00.224,-09.775,+00.000201,+00.000131,+00.000146*6A\r\n'"
1679683300.27791,13669,1679683300,246539354,IMU1_Frame,0,0,0,,0.059171811103381065,0.00040248928702281764,-0.9685458598691461,0.24169702543361238,"(0.0, 0.0, 0.0, 0.0, 0.0, 0.0, 0.0, 0.0, 0.0)",0.000232,-0.000594,0.00018,"(0.0, 0.0, 0.0, 0.0, 0.0, 0.0, 0.0, 0.0, 0.0)",1.096,-0.269,-9.795,"(0.0, 0.0, 0.0, 0.0, 0.0, 0.0, 0.0, 0.0, 0.0)",0,0,0,,-0.4932,0.2472,0.5134,"(0.0, 0.0, 0.0, 0.0, 0.0, 0.0, 0.0, 0.0, 0.0)","b'$VNYMR,-151.884,+006.593,+001.605,-00.4932,+00.2472,+00.5134,+01.096,-00.269,-09.795,+00.000232,-00.000594,+00.000189*64\r\n'"
1679683300.2829144,13670,1679683300,272302150,IMU1_Frame,0,0,0,,0.059173913419312996,0.0003950699095825218,-0.9685416447972569,0.24171341333040353,"(0.0, 0.0, 0.0, 0.0, 0.0, 0.0, 0.0, 0.0, 0.0)",0.001897,7.1e-05,0.00057,"(0.0, 0.0, 0.0, 0.0, 0.0, 0.0, 0.0, 0.0, 0.0)",1.114,-0.272,-9.794,"(0.0, 0.0, 0.0, 0.0, 0.0, 0.0, 0.0, 0.0, 0.0)",0,0,0,,-0.4932,0.2483,0.5121,"(0.0, 0.0, 0.0, 0.0, 0.0, 0.0, 0.0, 0.0, 0.0)","b'$VNYMR,-151.882,+006.593,+001.606,-00.4932,+00.2483,+00.5121,+01.114,-00.272,-09.794,+00.001897,+00.000071,+00.000573*66\r\n'"
1679683300.3259113,13671,1679683300,296670198,IMU1_Frame,0,0,0,,0.0591654475116116,0.00039552849822226295,-0.9685315541603625,0.24175591404073354,"(0.0, 0.0, 0.0, 0.0, 0.0, 0.0, 0.0, 0.0, 0.0)",0.00012,-0.000787,-0.00068,"(0.0, 0.0, 0.0, 0.0, 0.0, 0.0, 0.0, 0.0, 0.0)",1.109,-0.25,-9.786,"(0.0, 0.0, 0.0, 0.0, 0.0, 0.0, 0.0, 0.0, 0.0)",0,0,0,,-0.4911,0.2504,0.5121,"(0.0, 0.0, 0.0, 0.0, 0.0, 0.0, 0.0, 0.0, 0.0)","b'$VNYMR,-151.877,+006.592,+001.606,-00.4911,+00.2504,+00.5121,+01.109,-00.250,-09.786,+00.000120,-00.000787,-00.000682*6A\r\n'"
1679683300.369881,13672,1679683300,322251558,IMU1_Frame,0,0,0,,0.05915908837490707,0.00038805066504475107,-0.968519354881943,0.24180634999601658,"(0.0, 0.0, 0.0, 0.0, 0.0, 0.0, 0.0, 0.0, 0.0)",0.000492,-0.001086,0.00012,"(0.0, 0.0, 0.0, 0.0, 0.0, 0.0, 0.0, 0.0, 0.0)",1.123,-0.278,-9.782,"(0.0, 0.0, 0.0, 0.0, 0.0, 0.0, 0.0, 0.0, 0.0)",0,0,0,,-0.49,0.2515,0.5185,"(0.0, 0.0, 0.0, 0.0, 0.0, 0.0, 0.0, 0.0, 0.0)","b'$VNYMR,-151.871,+006.591,+001.607,-00.4900,+00.2515,+00.5185,+01.123,-00.278,-09.782,+00.000492,-00.001086,+00.000125*61\r\n'"
1679683300.369904,13673,1679683300,346497535,IMU1_Frame,0,0,0,,0.059152750024314464,0.0003774749287901672,-0.9685198150566372,0.24180607419975286,"(0.0, 0.0, 0.0, 0.0, 0.0, 0.0, 0.0, 0.0, 0.0)",0.001187,0.000332,-0.00028,"(0.0, 0.0, 0.0, 0.0, 0.0, 0.0, 0.0, 0.0, 0.0)",1.104,-0.255,-9.759,"(0.0, 0.0, 0.0, 0.0, 0.0, 0.0, 0.0, 0.0, 0.0)",0,0,0,,-0.491,0.2516,0.5109,"(0.0, 0.0, 0.0, 0.0, 0.0, 0.0, 0.0, 0.0, 0.0)","b'$VNYMR,-151.871,+006.590,+001.608,-00.4910,+00.2516,+00.5109,+01.104,-00.255,-09.759,+00.001187,+00.000332,-00.000287*63\r\n'"
1679683300.4139483,13674,1679683300,372201204,IMU1_Frame,0,0,0,,0.059144288374731416,0.00037741564368879744,-0.9685118305853315,0.24184012224262633,"(0.0, 0.0, 0.0, 0.0, 0.0, 0.0, 0.0, 0.0, 0.0)",-0.000351,0.0014,-1e-05,"(0.0, 0.0, 0.0, 0.0, 0.0, 0.0, 0.0, 0.0, 0.0)",1.133,-0.29,-9.772,"(0.0, 0.0, 0.0, 0.0, 0.0, 0.0, 0.0, 0.0, 0.0)",0,0,0,,-0.491,0.2516,0.5109,"(0.0, 0.0, 0.0, 0.0, 0.0, 0.0, 0.0, 0.0, 0.0)","b'$VNYMR,-151.867,+006.589,+001.608,-00.4910,+00.2516,+00.5109,+01.133,-00.290,-09.772,-00.000351,+00.001400,-00.000011*6C\r\n'"
1679683300.4139984,13675,1679683300,396499395,IMU1_Frame,0,0,0,,0.059152723527441414,0.00038160456886506336,-0.9685029314478425,0.24187368904900539,"(0.0, 0.0, 0.0, 0.0, 0.0, 0.0, 0.0, 0.0, 0.0)",9.9e-05,0.0012,0.00094,"(0.0, 0.0, 0.0, 0.0, 0.0, 0.0, 0.0, 0.0, 0.0)",1.093,-0.264,-9.808,"(0.0, 0.0, 0.0, 0.0, 0.0, 0.0, 0.0, 0.0, 0.0)",0,0,0,,-0.4942,0.2539,0.5158,"(0.0, 0.0, 0.0, 0.0, 0.0, 0.0, 0.0, 0.0, 0.0)","b'$VNYMR,-151.863,+006.590,+001.608,-00.4942,+00.2539,+00.5158,+01.093,-00.264,-09.808,+00.000099,+00.001200,+00.000944*64\r\n'"
1679683300.4579532,13676,1679683300,422279357,IMU1_Frame,0,0,0,,0.059154827749558415,0.00037418523293576873,-0.9684987131103433,0.2418900763630882,"(0.0, 0.0, 0.0, 0.0, 0.0, 0.0, 0.0, 0.0, 0.0)",0.000104,4.6e-05,-0.00017,"(0.0, 0.0, 0.0, 0.0, 0.0, 0.0, 0.0, 0.0, 0.0)",1.122,-0.287,-9.735,"(0.0, 0.0, 0.0, 0.0, 0.0, 0.0, 0.0, 0.0, 0.0)",0,0,0,,-0.4953,0.2528,0.5133,"(0.0, 0.0, 0.0, 0.0, 0.0, 0.0, 0.0, 0.0, 0.0)","b'$VNYMR,-151.861,+006.590,+001.609,-00.4953,+00.2528,+00.5133,+01.122,-00.287,-09.735,+00.000104,+00.000046,-00.000172*62\r\n'"
1679683300.4579916,13677,1679683300,447293996,IMU1_Frame,0,0,0,,0.05915692262198908,0.00036831469528663015,-0.9684881609937823,0.24193181862885,"(0.0, 0.0, 0.0, 0.0, 0.0, 0.0, 0.0, 0.0, 0.0)",7.6e-05,0.000411,-0.0009,"(0.0, 0.0, 0.0, 0.0, 0.0, 0.0, 0.0, 0.0, 0.0)",1.129,-0.265,-9.76,"(0.0, 0.0, 0.0, 0.0, 0.0, 0.0, 0.0, 0.0, 0.0)",0,0,0,,-0.4921,0.2494,0.5147,"(0.0, 0.0, 0.0, 0.0, 0.0, 0.0, 0.0, 0.0, 0.0)","b'$VNYMR,-151.856,+006.590,+001.610,-00.4921,+00.2494,+00.5147,+01.129,-00.265,-09.760,+00.000076,+00.000411,-00.000905*63\r\n'"
1679683300.5019987,13678,1679683300,472165346,IMU1_Frame,0,0,0,,0.059171694479091194,0.0003830816714675972,-0.9684787985138087,0.24196566006389406,"(0.0, 0.0, 0.0, 0.0, 0.0, 0.0, 0.0, 0.0, 0.0)",0.000115,0.000404,-0.00013,"(0.0, 0.0, 0.0, 0.0, 0.0, 0.0, 0.0, 0.0, 0.0)",1.144,-0.261,-9.752,"(0.0, 0.0, 0.0, 0.0, 0.0, 0.0, 0.0, 0.0, 0.0)",0,0,0,,-0.4932,0.2516,0.5133,"(0.0, 0.0, 0.0, 0.0, 0.0, 0.0, 0.0, 0.0, 0.0)","b'$VNYMR,-151.852,+006.592,+001.609,-00.4932,+00.2516,+00.5133,+01.144,-00.261,-09.752,+00.000115,+00.000404,-00.000130*67\r\n'"
1679683300.5083327,13679,1679683300,497183084,IMU1_Frame,0,0,0,,0.05916746088077981,0.000401533815819281,-0.9684724566751691,0.2419920474004857,"(0.0, 0.0, 0.0, 0.0, 0.0, 0.0, 0.0, 0.0, 0.0)",-0.000801,5.8e-05,-0.00029,"(0.0, 0.0, 0.0, 0.0, 0.0, 0.0, 0.0, 0.0, 0.0)",1.143,-0.236,-9.793,"(0.0, 0.0, 0.0, 0.0, 0.0, 0.0, 0.0, 0.0, 0.0)",0,0,0,,-0.491,0.2538,0.5146,"(0.0, 0.0, 0.0, 0.0, 0.0, 0.0, 0.0, 0.0, 0.0)","b'$VNYMR,-151.849,+006.592,+001.607,-00.4910,+00.2538,+00.5146,+01.143,-00.236,-09.793,-00.000801,+00.000058,-00.000291*6A\r\n'"
1679683300.5540051,13680,1679683300,522208929,IMU1_Frame,0,0,0,,0.05919067879851399,0.0004184277500392571,-0.9684626343232866,0.24202564818875963,"(0.0, 0.0, 0.0, 0.0, 0.0, 0.0, 0.0, 0.0, 0.0)",0.001253,0.001834,0.00113,"(0.0, 0.0, 0.0, 0.0, 0.0, 0.0, 0.0, 0.0, 0.0)",1.135,-0.267,-9.778,"(0.0, 0.0, 0.0, 0.0, 0.0, 0.0, 0.0, 0.0, 0.0)",0,0,0,,-0.4932,0.2494,0.5146,"(0.0, 0.0, 0.0, 0.0, 0.0, 0.0, 0.0, 0.0, 0.0)","b'$VNYMR,-151.845,+006.595,+001.606,-00.4932,+00.2494,+00.5146,+01.135,-00.267,-09.778,+00.001253,+00.001834,+00.001137*66\r\n'"
1679683300.602063,13681,1679683300,547179222,IMU1_Frame,0,0,0,,0.059188548041581246,0.00042946176886395765,-0.9684520693294089,0.24206842163922224,"(0.0, 0.0, 0.0, 0.0, 0.0, 0.0, 0.0, 0.0, 0.0)",0.000987,-4.3e-05,0.00076,"(0.0, 0.0, 0.0, 0.0, 0.0, 0.0, 0.0, 0.0, 0.0)",1.148,-0.235,-9.806,"(0.0, 0.0, 0.0, 0.0, 0.0, 0.0, 0.0, 0.0, 0.0)",0,0,0,,-0.4931,0.255,0.5146,"(0.0, 0.0, 0.0, 0.0, 0.0, 0.0, 0.0, 0.0, 0.0)","b'$VNYMR,-151.840,+006.595,+001.605,-00.4931,+00.2550,+00.5146,+01.148,-00.235,-09.806,+00.000987,-00.000043,+00.000767*6F\r\n'"
1679683300.6021004,13682,1679683300,572198390,IMU1_Frame,0,0,0,,0.0592054324936388,0.0004352639311314688,-0.9684448172308248,0.2420932945938522,"(0.0, 0.0, 0.0, 0.0, 0.0, 0.0, 0.0, 0.0, 0.0)",0.000218,0.000601,0.0003,"(0.0, 0.0, 0.0, 0.0, 0.0, 0.0, 0.0, 0.0, 0.0)",1.134,-0.257,-9.789,"(0.0, 0.0, 0.0, 0.0, 0.0, 0.0, 0.0, 0.0, 0.0)",0,0,0,,-0.49,0.2515,0.5121,"(0.0, 0.0, 0.0, 0.0, 0.0, 0.0, 0.0, 0.0, 0.0)","b'$VNYMR,-151.837,+006.597,+001.605,-00.4900,+00.2515,+00.5121,+01.134,-00.257,-09.789,+00.000218,+00.000601,+00.000303*65\r\n'"
1679683300.6460514,13683,1679683300,597119092,IMU1_Frame,0,0,0,,0.05919485652076001,0.00044365519610151637,-0.9684368193994958,0.24212785664384365,"(0.0, 0.0, 0.0, 0.0, 0.0, 0.0, 0.0, 0.0, 0.0)",0.000936,7.7e-05,-0.00044,"(0.0, 0.0, 0.0, 0.0, 0.0, 0.0, 0.0, 0.0, 0.0)",1.095,-0.248,-9.768,"(0.0, 0.0, 0.0, 0.0, 0.0, 0.0, 0.0, 0.0, 0.0)",0,0,0,,-0.4953,0.2517,0.5108,"(0.0, 0.0, 0.0, 0.0, 0.0, 0.0, 0.0, 0.0, 0.0)","b'$VNYMR,-151.833,+006.596,+001.604,-00.4953,+00.2517,+00.5108,+01.095,-00.248,-09.768,+00.000936,+00.000077,-00.000449*6A\r\n'"
1679683300.646088,13684,1679683300,622091531,IMU1_Frame,0,0,0,,0.059177953262353186,0.00044043485459028565,-0.9684335076183606,0.24214523985991587,"(0.0, 0.0, 0.0, 0.0, 0.0, 0.0, 0.0, 0.0, 0.0)",0.000681,-7e-06,0.00036,"(0.0, 0.0, 0.0, 0.0, 0.0, 0.0, 0.0, 0.0, 0.0)",1.087,-0.269,-9.747,"(0.0, 0.0, 0.0, 0.0, 0.0, 0.0, 0.0, 0.0, 0.0)",0,0,0,,-0.4931,0.2516,0.5095,"(0.0, 0.0, 0.0, 0.0, 0.0, 0.0, 0.0, 0.0, 0.0)","b'$VNYMR,-151.831,+006.594,+001.604,-00.4931,+00.2516,+00.5095,+01.087,-00.269,-09.747,+00.000681,-00.000007,+00.000363*6C\r\n'"
1679683300.6900125,13685,1679683300,647102117,IMU1_Frame,0,0,0,,0.059161042476534545,0.00043824647809279603,-0.9684259685478428,0.24217952521897246,"(0.0, 0.0, 0.0, 0.0, 0.0, 0.0, 0.0, 0.0, 0.0)",0.002023,0.000348,-0.00088,"(0.0, 0.0, 0.0, 0.0, 0.0, 0.0, 0.0, 0.0, 0.0)",1.102,-0.276,-9.757,"(0.0, 0.0, 0.0, 0.0, 0.0, 0.0, 0.0, 0.0, 0.0)",0,0,0,,-0.492,0.2549,0.5095,"(0.0, 0.0, 0.0, 0.0, 0.0, 0.0, 0.0, 0.0, 0.0)","b'$VNYMR,-151.827,+006.592,+001.604,-00.4920,+00.2549,+00.5095,+01.102,-00.276,-09.757,+00.002023,+00.000348,-00.000882*64\r\n'"
1679683300.6900482,13686,1679683300,672139167,IMU1_Frame,0,0,0,,0.05914835931707375,0.0004191548312368603,-0.9684184354318947,0.24221277797624016,"(0.0, 0.0, 0.0, 0.0, 0.0, 0.0, 0.0, 0.0, 0.0)",0.001762,-0.001469,0.00022,"(0.0, 0.0, 0.0, 0.0, 0.0, 0.0, 0.0, 0.0, 0.0)",1.098,-0.274,-9.783,"(0.0, 0.0, 0.0, 0.0, 0.0, 0.0, 0.0, 0.0, 0.0)",0,0,0,,-0.49,0.2515,0.5096,"(0.0, 0.0, 0.0, 0.0, 0.0, 0.0, 0.0, 0.0, 0.0)","b'$VNYMR,-151.823,+006.590,+001.606,-00.4900,+00.2515,+00.5096,+01.098,-00.274,-09.783,+00.001762,-00.001469,+00.000222*65\r\n'"
1679683300.7340708,13687,1679683300,697065830,IMU1_Frame,0,0,0,,0.059142011098951446,0.0004106408867976981,-0.9684104403207687,0.24224630642172493,"(0.0, 0.0, 0.0, 0.0, 0.0, 0.0, 0.0, 0.0, 0.0)",0.00055,0.000375,0.00032,"(0.0, 0.0, 0.0, 0.0, 0.0, 0.0, 0.0, 0.0, 0.0)",1.104,-0.297,-9.771,"(0.0, 0.0, 0.0, 0.0, 0.0, 0.0, 0.0, 0.0, 0.0)",0,0,0,,-0.4911,0.2493,0.5096,"(0.0, 0.0, 0.0, 0.0, 0.0, 0.0, 0.0, 0.0, 0.0)","b'$VNYMR,-151.819,+006.589,+001.607,-00.4911,+00.2493,+00.5096,+01.104,-00.297,-09.771,+00.000550,+00.000375,+00.000329*6B\r\n'"
1679683300.734116,13688,1679683300,722136497,IMU1_Frame,0,0,0,,0.059144111019414386,0.0004042544306217966,-0.968401987304145,0.24227959405501176,"(0.0, 0.0, 0.0, 0.0, 0.0, 0.0, 0.0, 0.0, 0.0)",-0.000357,0.000128,-8e-05,"(0.0, 0.0, 0.0, 0.0, 0.0, 0.0, 0.0, 0.0, 0.0)",1.08,-0.282,-9.782,"(0.0, 0.0, 0.0, 0.0, 0.0, 0.0, 0.0, 0.0, 0.0)",0,0,0,,-0.4756,0.2912,0.5286,"(0.0, 0.0, 0.0, 0.0, 0.0, 0.0, 0.0, 0.0, 0.0)","b'$VNYMR,-151.815,+006.589,+001.608,-00.4756,+00.2912,+00.5286,+01.080,-00.282,-09.782,-00.000357,+00.000128,-00.000088*64\r\n'"
1679683300.777923,13689,1679683300,747058868,IMU1_Frame,0,0,0,,0.05914408977162843,0.0004073512084776052,-0.9683893002468061,0.24233029913236095,"(0.0, 0.0, 0.0, 0.0, 0.0, 0.0, 0.0, 0.0, 0.0)",-0.000135,0.001502,0.00025,"(0.0, 0.0, 0.0, 0.0, 0.0, 0.0, 0.0, 0.0, 0.0)",1.106,-0.259,-9.795,"(0.0, 0.0, 0.0, 0.0, 0.0, 0.0, 0.0, 0.0, 0.0)",0,0,0,,-0.4884,0.2805,0.5132,"(0.0, 0.0, 0.0, 0.0, 0.0, 0.0, 0.0, 0.0, 0.0)","b'$VNYMR,-151.809,+006.589,+001.608,-00.4884,+00.2805,+00.5132,+01.106,-00.259,-09.795,-00.000135,+00.001502,+00.000256*61\r\n'"
1679683300.7828467,13690,1679683300,772157430,IMU1_Frame,0,0,0,,0.05914195683949402,0.0004183825544069233,-0.9683787220567749,0.2423730689761573,"(0.0, 0.0, 0.0, 0.0, 0.0, 0.0, 0.0, 0.0, 0.0)",-0.000393,4.8e-05,0.0009,"(0.0, 0.0, 0.0, 0.0, 0.0, 0.0, 0.0, 0.0, 0.0)",1.115,-0.269,-9.791,"(0.0, 0.0, 0.0, 0.0, 0.0, 0.0, 0.0, 0.0, 0.0)",0,0,0,,-0.4876,0.2682,0.5171,"(0.0, 0.0, 0.0, 0.0, 0.0, 0.0, 0.0, 0.0, 0.0)","b'$VNYMR,-151.804,+006.589,+001.607,-00.4876,+00.2682,+00.5171,+01.115,-00.269,-09.791,-00.000393,+00.000048,+00.000906*67\r\n'"
1679683300.8299491,13691,1679683300,797041893,IMU1_Frame,0,0,0,,0.059156713620392584,0.0004341881754871737,-0.9683651130457692,0.2424238077213489,"(0.0, 0.0, 0.0, 0.0, 0.0, 0.0, 0.0, 0.0, 0.0)",0.000183,0.00234,-8e-05,"(0.0, 0.0, 0.0, 0.0, 0.0, 0.0, 0.0, 0.0, 0.0)",1.125,-0.243,-9.764,"(0.0, 0.0, 0.0, 0.0, 0.0, 0.0, 0.0, 0.0, 0.0)",0,0,0,,-0.4897,0.2682,0.5196,"(0.0, 0.0, 0.0, 0.0, 0.0, 0.0, 0.0, 0.0, 0.0)","b'$VNYMR,-151.798,+006.591,+001.606,-00.4897,+00.2682,+00.5196,+01.125,-00.243,-09.764,+00.000183,+00.002340,-00.000083*6C\r\n'"
1679683300.8739436,13692,1679683300,822124242,IMU1_Frame,0,0,0,,0.05916089788899696,0.0004573487220484885,-0.9683477217106503,0.24249220369097846,"(0.0, 0.0, 0.0, 0.0, 0.0, 0.0, 0.0, 0.0, 0.0)",0.001449,0.000581,-0.00042,"(0.0, 0.0, 0.0, 0.0, 0.0, 0.0, 0.0, 0.0, 0.0)",1.123,-0.239,-9.758,"(0.0, 0.0, 0.0, 0.0, 0.0, 0.0, 0.0, 0.0, 0.0)",0,0,0,,-0.4908,0.2683,0.512,"(0.0, 0.0, 0.0, 0.0, 0.0, 0.0, 0.0, 0.0, 0.0)","b'$VNYMR,-151.790,+006.592,+001.604,-00.4908,+00.2683,+00.5120,+01.123,-00.239,-09.758,+00.001449,+00.000581,-00.000428*64\r\n'"
1679683300.8739858,13693,1679683300,847012519,IMU1_Frame,0,0,0,,0.05915662816269289,0.00047889573020942766,-0.9683286652200781,0.24256928931009045,"(0.0, 0.0, 0.0, 0.0, 0.0, 0.0, 0.0, 0.0, 0.0)",0.000438,0.000657,-9e-05,"(0.0, 0.0, 0.0, 0.0, 0.0, 0.0, 0.0, 0.0, 0.0)",1.105,-0.244,-9.771,"(0.0, 0.0, 0.0, 0.0, 0.0, 0.0, 0.0, 0.0, 0.0)",0,0,0,,-0.4929,0.265,0.5158,"(0.0, 0.0, 0.0, 0.0, 0.0, 0.0, 0.0, 0.0, 0.0)","b'$VNYMR,-151.781,+006.592,+001.602,-00.4929,+00.2650,+00.5158,+01.105,-00.244,-09.771,+00.000438,+00.000657,-00.000095*68\r\n'"
1679683300.9179933,13694,1679683300,872041940,IMU1_Frame,0,0,0,,0.059154477176734506,0.0004914757546863272,-0.9683117240772184,0.2426374070421432,"(0.0, 0.0, 0.0, 0.0, 0.0, 0.0, 0.0, 0.0, 0.0)",-0.000194,0.000339,-0.0006,"(0.0, 0.0, 0.0, 0.0, 0.0, 0.0, 0.0, 0.0, 0.0)",1.093,-0.259,-9.757,"(0.0, 0.0, 0.0, 0.0, 0.0, 0.0, 0.0, 0.0, 0.0)",0,0,0,,-0.4909,0.2605,0.5133,"(0.0, 0.0, 0.0, 0.0, 0.0, 0.0, 0.0, 0.0, 0.0)","b'$VNYMR,-151.773,+006.592,+001.601,-00.4909,+00.2605,+00.5133,+01.093,-00.259,-09.757,-00.000194,+00.000339,-00.000603*6E\r\n'"
1679683300.9180543,13695,1679683300,896991968,IMU1_Frame,0,0,0,,0.05914808415014691,0.0005214715774407748,-0.9682926510730697,0.24271500589507755,"(0.0, 0.0, 0.0, 0.0, 0.0, 0.0, 0.0, 0.0, 0.0)",-8.9e-05,0.000138,6e-05,"(0.0, 0.0, 0.0, 0.0, 0.0, 0.0, 0.0, 0.0, 0.0)",1.127,-0.268,-9.744,"(0.0, 0.0, 0.0, 0.0, 0.0, 0.0, 0.0, 0.0, 0.0)",0,0,0,,-0.4888,0.2604,0.5172,"(0.0, 0.0, 0.0, 0.0, 0.0, 0.0, 0.0, 0.0, 0.0)","b'$VNYMR,-151.764,+006.592,+001.598,-00.4888,+00.2604,+00.5172,+01.127,-00.268,-09.744,-00.000089,+00.000138,+00.000065*67\r\n'"
1679683300.9618974,13696,1679683300,922017812,IMU1_Frame,0,0,0,,0.05914171989050325,0.0005150188397771704,-0.9682761653841271,0.24278232899656957,"(0.0, 0.0, 0.0, 0.0, 0.0, 0.0, 0.0, 0.0, 0.0)",0.001434,-0.000116,0.00027,"(0.0, 0.0, 0.0, 0.0, 0.0, 0.0, 0.0, 0.0, 0.0)",1.115,-0.263,-9.729,"(0.0, 0.0, 0.0, 0.0, 0.0, 0.0, 0.0, 0.0, 0.0)",0,0,0,,-0.4899,0.2582,0.5121,"(0.0, 0.0, 0.0, 0.0, 0.0, 0.0, 0.0, 0.0, 0.0)","b'$VNYMR,-151.756,+006.591,+001.599,-00.4899,+00.2582,+00.5121,+01.115,-00.263,-09.729,+00.001434,-00.000116,+00.000274*63\r\n'"
1679683300.9619384,13697,1679683300,946952104,IMU1_Frame,0,0,0,,0.059133233036020964,0.0005175309025143553,-0.9682575510504369,0.24285861678409318,"(0.0, 0.0, 0.0, 0.0, 0.0, 0.0, 0.0, 0.0, 0.0)",0.000322,0.000128,-0.00044,"(0.0, 0.0, 0.0, 0.0, 0.0, 0.0, 0.0, 0.0, 0.0)",1.074,-0.265,-9.782,"(0.0, 0.0, 0.0, 0.0, 0.0, 0.0, 0.0, 0.0, 0.0)",0,0,0,,-0.494,0.265,0.5119,"(0.0, 0.0, 0.0, 0.0, 0.0, 0.0, 0.0, 0.0, 0.0)","b'$VNYMR,-151.747,+006.590,+001.599,-00.4940,+00.2650,+00.5119,+01.074,-00.265,-09.782,+00.000322,+00.000128,-00.000445*69\r\n'"
1679683301.0058763,13698,1679683300,971987247,IMU1_Frame,0,0,0,,0.059118415641953165,0.000509974479238031,-0.9682372716397522,0.24294307700699083,"(0.0, 0.0, 0.0, 0.0, 0.0, 0.0, 0.0, 0.0, 0.0)",0.000952,0.001104,0.00055,"(0.0, 0.0, 0.0, 0.0, 0.0, 0.0, 0.0, 0.0, 0.0)",1.198,-0.237,-9.777,"(0.0, 0.0, 0.0, 0.0, 0.0, 0.0, 0.0, 0.0, 0.0)",0,0,0,,-0.4951,0.265,0.5132,"(0.0, 0.0, 0.0, 0.0, 0.0, 0.0, 0.0, 0.0, 0.0)","b'$VNYMR,-151.737,+006.588,+001.600,-00.4951,+00.2650,+00.5132,+01.198,-00.237,-09.777,+00.000952,+00.001104,+00.000554*66\r\n'"
1679683301.0084398,13699,1679683300,996953487,IMU1_Frame,0,0,0,,0.059128946453129515,0.0005077866560821518,-0.9682198565936356,0.24300991572743402,"(0.0, 0.0, 0.0, 0.0, 0.0, 0.0, 0.0, 0.0, 0.0)",0.000482,0.002064,-0.00175,"(0.0, 0.0, 0.0, 0.0, 0.0, 0.0, 0.0, 0.0, 0.0)",1.143,-0.266,-9.717,"(0.0, 0.0, 0.0, 0.0, 0.0, 0.0, 0.0, 0.0, 0.0)",0,0,0,,-0.4898,0.2638,0.5146,"(0.0, 0.0, 0.0, 0.0, 0.0, 0.0, 0.0, 0.0, 0.0)","b'$VNYMR,-151.729,+006.589,+001.601,-00.4898,+00.2638,+00.5146,+01.143,-00.266,-09.717,+00.000482,+00.002064,-00.001756*67\r\n'"
1679683301.0498686,13700,1679683301,21954298,IMU1_Frame,0,0,0,,0.0591289108588397,0.0005119146340367385,-0.9682028889415785,0.24307750963270192,"(0.0, 0.0, 0.0, 0.0, 0.0, 0.0, 0.0, 0.0, 0.0)",0.00011,0.001946,-0.00024,"(0.0, 0.0, 0.0, 0.0, 0.0, 0.0, 0.0, 0.0, 0.0)",1.135,-0.277,-9.783,"(0.0, 0.0, 0.0, 0.0, 0.0, 0.0, 0.0, 0.0, 0.0)",0,0,0,,-0.493,0.2616,0.5132,"(0.0, 0.0, 0.0, 0.0, 0.0, 0.0, 0.0, 0.0, 0.0)","b'$VNYMR,-151.721,+006.589,+001.601,-00.4930,+00.2616,+00.5132,+01.135,-00.277,-09.783,+00.000110,+00.001946,-00.000247*6F\r\n'"
1679683301.0979953,13701,1679683301,46950340,IMU1_Frame,0,0,0,,0.059137316041829105,0.0005186941094018297,-0.9681833381446479,0.24315331078740465,"(0.0, 0.0, 0.0, 0.0, 0.0, 0.0, 0.0, 0.0, 0.0)",0.000336,0.000297,-0.00035,"(0.0, 0.0, 0.0, 0.0, 0.0, 0.0, 0.0, 0.0, 0.0)",1.115,-0.265,-9.787,"(0.0, 0.0, 0.0, 0.0, 0.0, 0.0, 0.0, 0.0, 0.0)",0,0,0,,-0.4919,0.2605,0.5133,"(0.0, 0.0, 0.0, 0.0, 0.0, 0.0, 0.0, 0.0, 0.0)","b'$VNYMR,-151.712,+006.590,+001.601,-00.4919,+00.2605,+00.5133,+01.115,-00.265,-09.787,+00.000336,+00.000297,-00.000359*64\r\n'"
1679683301.0980442,13702,1679683301,71938276,IMU1_Frame,0,0,0,,0.059139402186559234,0.0005143738262688123,-0.9681663650074396,0.2432203860634725,"(0.0, 0.0, 0.0, 0.0, 0.0, 0.0, 0.0, 0.0, 0.0)",0.00084,0.001724,0.00107,"(0.0, 0.0, 0.0, 0.0, 0.0, 0.0, 0.0, 0.0, 0.0)",1.113,-0.242,-9.791,"(0.0, 0.0, 0.0, 0.0, 0.0, 0.0, 0.0, 0.0, 0.0)",0,0,0,,-0.4898,0.2615,0.5159,"(0.0, 0.0, 0.0, 0.0, 0.0, 0.0, 0.0, 0.0, 0.0)","b'$VNYMR,-151.704,+006.590,+001.602,-00.4898,+00.2615,+00.5159,+01.113,-00.242,-09.791,+00.000840,+00.001724,+00.001071*69\r\n'"
1679683301.142124,13703,1679683301,96853971,IMU1_Frame,0,0,0,,0.05915411964637107,0.0005327732473231934,-0.9681420952536374,0.24331335696879997,"(0.0, 0.0, 0.0, 0.0, 0.0, 0.0, 0.0, 0.0, 0.0)",4.8e-05,-3.7e-05,-8e-05,"(0.0, 0.0, 0.0, 0.0, 0.0, 0.0, 0.0, 0.0, 0.0)",1.152,-0.274,-9.775,"(0.0, 0.0, 0.0, 0.0, 0.0, 0.0, 0.0, 0.0, 0.0)",0,0,0,,-0.4888,0.2604,0.5134,"(0.0, 0.0, 0.0, 0.0, 0.0, 0.0, 0.0, 0.0, 0.0)","b'$VNYMR,-151.693,+006.592,+001.601,-00.4888,+00.2604,+00.5134,+01.152,-00.274,-09.775,+00.000048,-00.000037,-00.000088*64\r\n'"
1679683301.142163,13704,1679683301,121942996,IMU1_Frame,0,0,0,,0.05914351334522588,0.0005432139789911198,-0.9681255583525661,0.2433817022955672,"(0.0, 0.0, 0.0, 0.0, 0.0, 0.0, 0.0, 0.0, 0.0)",0.000582,-0.000382,0.00089,"(0.0, 0.0, 0.0, 0.0, 0.0, 0.0, 0.0, 0.0, 0.0)",1.133,-0.246,-9.743,"(0.0, 0.0, 0.0, 0.0, 0.0, 0.0, 0.0, 0.0, 0.0)",0,0,0,,-0.4854,0.2692,0.5108,"(0.0, 0.0, 0.0, 0.0, 0.0, 0.0, 0.0, 0.0, 0.0)","b'$VNYMR,-151.685,+006.591,+001.600,-00.4854,+00.2692,+00.5108,+01.133,-00.246,-09.743,+00.000582,-00.000382,+00.000890*6A\r\n'"
1679683301.1859972,13705,1679683301,146831274,IMU1_Frame,0,0,0,,0.05914346571566175,0.0005483752221115187,-0.9681043156060234,0.24346618626156094,"(0.0, 0.0, 0.0, 0.0, 0.0, 0.0, 0.0, 0.0, 0.0)",0.001275,0.00029,0.00094,"(0.0, 0.0, 0.0, 0.0, 0.0, 0.0, 0.0, 0.0, 0.0)",1.129,-0.258,-9.748,"(0.0, 0.0, 0.0, 0.0, 0.0, 0.0, 0.0, 0.0, 0.0)",0,0,0,,-0.4909,0.2627,0.5133,"(0.0, 0.0, 0.0, 0.0, 0.0, 0.0, 0.0, 0.0, 0.0)","b'$VNYMR,-151.675,+006.591,+001.600,-00.4909,+00.2627,+00.5133,+01.129,-00.258,-09.748,+00.001275,+00.000290,+00.000949*6A\r\n'"
1679683301.1860368,13706,1679683301,171848297,IMU1_Frame,0,0,0,,0.059139176812549314,0.0005694005246306647,-0.9680873063100897,0.24353480430987878,"(0.0, 0.0, 0.0, 0.0, 0.0, 0.0, 0.0, 0.0, 0.0)",-0.000351,-0.000762,0.00083,"(0.0, 0.0, 0.0, 0.0, 0.0, 0.0, 0.0, 0.0, 0.0)",1.135,-0.25,-9.774,"(0.0, 0.0, 0.0, 0.0, 0.0, 0.0, 0.0, 0.0, 0.0)",0,0,0,,-0.4832,0.2737,0.4981,"(0.0, 0.0, 0.0, 0.0, 0.0, 0.0, 0.0, 0.0, 0.0)","b'$VNYMR,-151.667,+006.591,+001.598,-00.4832,+00.2737,+00.4981,+01.135,-00.250,-09.774,-00.000351,-00.000762,+00.000833*6A\r\n'"
1679683301.2339714,13707,1679683301,196761846,IMU1_Frame,0,0,0,,0.05913912689779449,0.0005745613892174893,-0.9680660502030215,0.24361928493716917,"(0.0, 0.0, 0.0, 0.0, 0.0, 0.0, 0.0, 0.0, 0.0)",0.0012,0.00024,0.00042,"(0.0, 0.0, 0.0, 0.0, 0.0, 0.0, 0.0, 0.0, 0.0)",1.117,-0.255,-9.774,"(0.0, 0.0, 0.0, 0.0, 0.0, 0.0, 0.0, 0.0, 0.0)",0,0,0,,-0.4843,0.2715,0.5032,"(0.0, 0.0, 0.0, 0.0, 0.0, 0.0, 0.0, 0.0, 0.0)","b'$VNYMR,-151.657,+006.591,+001.598,-00.4843,+00.2715,+00.5032,+01.117,-00.255,-09.774,+00.001200,+00.000240,+00.000428*6D\r\n'"
1679683301.2340236,13708,1679683301,221879005,IMU1_Frame,0,0,0,,0.059136949813879534,0.0005881700338241595,-0.9680447816278172,0.24370427978571427,"(0.0, 0.0, 0.0, 0.0, 0.0, 0.0, 0.0, 0.0, 0.0)",0.000769,0.000192,-0.00015,"(0.0, 0.0, 0.0, 0.0, 0.0, 0.0, 0.0, 0.0, 0.0)",1.116,-0.275,-9.777,"(0.0, 0.0, 0.0, 0.0, 0.0, 0.0, 0.0, 0.0, 0.0)",0,0,0,,-0.4875,0.2682,0.498,"(0.0, 0.0, 0.0, 0.0, 0.0, 0.0, 0.0, 0.0, 0.0)","b'$VNYMR,-151.647,+006.591,+001.597,-00.4875,+00.2682,+00.4980,+01.116,-00.275,-09.777,+00.000769,+00.000192,-00.000156*65\r\n'"
1679683301.2779171,13709,1679683301,246720552,IMU1_Frame,0,0,0,,0.05913476554693284,0.0006022943509275194,-0.9680213780171338,0.24379772034831088,"(0.0, 0.0, 0.0, 0.0, 0.0, 0.0, 0.0, 0.0, 0.0)",0.001848,0.000147,-0.00086,"(0.0, 0.0, 0.0, 0.0, 0.0, 0.0, 0.0, 0.0, 0.0)",1.101,-0.232,-9.751,"(0.0, 0.0, 0.0, 0.0, 0.0, 0.0, 0.0, 0.0, 0.0)",0,0,0,,-0.4844,0.267,0.5045,"(0.0, 0.0, 0.0, 0.0, 0.0, 0.0, 0.0, 0.0, 0.0)","b'$VNYMR,-151.636,+006.591,+001.596,-00.4844,+00.2670,+00.5045,+01.101,-00.232,-09.751,+00.001848,+00.000147,-00.000865*61\r\n'"
1679683301.282393,13710,1679683301,271833896,IMU1_Frame,0,0,0,,0.05913469683827154,0.0006090029733850696,-0.9679937138138959,0.24390753732102116,"(0.0, 0.0, 0.0, 0.0, 0.0, 0.0, 0.0, 0.0, 0.0)",0.001175,-0.001182,0.00059,"(0.0, 0.0, 0.0, 0.0, 0.0, 0.0, 0.0, 0.0, 0.0)",1.14,-0.248,-9.834,"(0.0, 0.0, 0.0, 0.0, 0.0, 0.0, 0.0, 0.0, 0.0)",0,0,0,,-0.4853,0.2737,0.5069,"(0.0, 0.0, 0.0, 0.0, 0.0, 0.0, 0.0, 0.0, 0.0)","b'$VNYMR,-151.623,+006.591,+001.596,-00.4853,+00.2737,+00.5069,+01.140,-00.248,-09.834,+00.001175,-00.001182,+00.000598*6B\r\n'"
1679683301.3299522,13711,1679683301,296736240,IMU1_Frame,0,0,0,,0.05914521111279787,0.0006083752160394324,-0.9679698446785847,0.24399970015337236,"(0.0, 0.0, 0.0, 0.0, 0.0, 0.0, 0.0, 0.0, 0.0)",0.000822,0.000959,-0.00134,"(0.0, 0.0, 0.0, 0.0, 0.0, 0.0, 0.0, 0.0, 0.0)",1.066,-0.239,-9.814,"(0.0, 0.0, 0.0, 0.0, 0.0, 0.0, 0.0, 0.0, 0.0)",0,0,0,,-0.4875,0.2682,0.5019,"(0.0, 0.0, 0.0, 0.0, 0.0, 0.0, 0.0, 0.0, 0.0)","b'$VNYMR,-151.612,+006.592,+001.597,-00.4875,+00.2682,+00.5019,+01.066,-00.239,-09.814,+00.000822,+00.000959,-00.001343*62\r\n'"
1679683301.3779707,13712,1679683301,321692705,IMU1_Frame,0,0,0,,0.05914727726098286,0.0006061219772944323,-0.9679442931085621,0.24410054823233593,"(0.0, 0.0, 0.0, 0.0, 0.0, 0.0, 0.0, 0.0, 0.0)",0.001125,0.002008,0.00068,"(0.0, 0.0, 0.0, 0.0, 0.0, 0.0, 0.0, 0.0, 0.0)",1.105,-0.264,-9.786,"(0.0, 0.0, 0.0, 0.0, 0.0, 0.0, 0.0, 0.0, 0.0)",0,0,0,,-0.4896,0.2705,0.5005,"(0.0, 0.0, 0.0, 0.0, 0.0, 0.0, 0.0, 0.0, 0.0)","b'$VNYMR,-151.600,+006.592,+001.598,-00.4896,+00.2705,+00.5005,+01.105,-00.264,-09.786,+00.001125,+00.002008,+00.000683*66\r\n'"
1679683301.3780396,13713,1679683301,346812248,IMU1_Frame,0,0,0,,0.059164094572184814,0.0006171214240499583,-0.9679156813525909,0.24420987462908078,"(0.0, 0.0, 0.0, 0.0, 0.0, 0.0, 0.0, 0.0, 0.0)",0.000231,0.001246,0.00057,"(0.0, 0.0, 0.0, 0.0, 0.0, 0.0, 0.0, 0.0, 0.0)",1.17,-0.289,-9.776,"(0.0, 0.0, 0.0, 0.0, 0.0, 0.0, 0.0, 0.0, 0.0)",0,0,0,,-0.4864,0.2704,0.5006,"(0.0, 0.0, 0.0, 0.0, 0.0, 0.0, 0.0, 0.0, 0.0)","b'$VNYMR,-151.587,+006.594,+001.598,-00.4864,+00.2704,+00.5006,+01.170,-00.289,-09.776,+00.000231,+00.001246,+00.000573*6D\r\n'"
1679683301.4219956,13714,1679683301,371855258,IMU1_Frame,0,0,0,,0.059168288355081866,0.0006069405417164931,-0.9678879811331419,0.2443186469639997,"(0.0, 0.0, 0.0, 0.0, 0.0, 0.0, 0.0, 0.0, 0.0)",0.001593,0.000282,4e-05,"(0.0, 0.0, 0.0, 0.0, 0.0, 0.0, 0.0, 0.0, 0.0)",1.132,-0.286,-9.742,"(0.0, 0.0, 0.0, 0.0, 0.0, 0.0, 0.0, 0.0, 0.0)",0,0,0,,-0.4813,0.2636,0.5071,"(0.0, 0.0, 0.0, 0.0, 0.0, 0.0, 0.0, 0.0, 0.0)","b'$VNYMR,-151.574,+006.594,+001.600,-00.4813,+00.2636,+00.5071,+01.132,-00.286,-09.742,+00.001593,+00.000282,+00.000048*67\r\n'"
1679683301.4220548,13715,1679683301,396826028,IMU1_Frame,0,0,0,,0.05917034687378814,0.0006057231517729422,-0.9678581300788355,0.24443637861537462,"(0.0, 0.0, 0.0, 0.0, 0.0, 0.0, 0.0, 0.0, 0.0)",0.000224,-0.000323,0.00051,"(0.0, 0.0, 0.0, 0.0, 0.0, 0.0, 0.0, 0.0, 0.0)",1.152,-0.258,-9.685,"(0.0, 0.0, 0.0, 0.0, 0.0, 0.0, 0.0, 0.0, 0.0)",0,0,0,,-0.4791,0.268,0.5059,"(0.0, 0.0, 0.0, 0.0, 0.0, 0.0, 0.0, 0.0, 0.0)","b'$VNYMR,-151.560,+006.594,+001.601,-00.4791,+00.2680,+00.5059,+01.152,-00.258,-09.685,+00.000224,-00.000323,+00.000510*60\r\n'"
1679683301.4659493,13716,1679683301,421790361,IMU1_Frame,0,0,0,,0.059170277775912765,0.000612435810781917,-0.9678303934231662,0.2445461770640842,"(0.0, 0.0, 0.0, 0.0, 0.0, 0.0, 0.0, 0.0, 0.0)",-5.7e-05,-0.000185,-0.00126,"(0.0, 0.0, 0.0, 0.0, 0.0, 0.0, 0.0, 0.0, 0.0)",1.154,-0.294,-9.746,"(0.0, 0.0, 0.0, 0.0, 0.0, 0.0, 0.0, 0.0, 0.0)",0,0,0,,-0.4791,0.268,0.5122,"(0.0, 0.0, 0.0, 0.0, 0.0, 0.0, 0.0, 0.0, 0.0)","b'$VNYMR,-151.547,+006.594,+001.601,-00.4791,+00.2680,+00.5122,+01.154,-00.294,-09.746,-00.000057,-00.000185,-00.001269*60\r\n'"
1679683301.4659796,13717,1679683301,446638107,IMU1_Frame,0,0,0,,0.059163906025210065,0.0006080378648696209,-0.9678052411141742,0.2446472517436693,"(0.0, 0.0, 0.0, 0.0, 0.0, 0.0, 0.0, 0.0, 0.0)",0.000144,-0.000392,-0.00032,"(0.0, 0.0, 0.0, 0.0, 0.0, 0.0, 0.0, 0.0, 0.0)",1.072,-0.217,-9.78,"(0.0, 0.0, 0.0, 0.0, 0.0, 0.0, 0.0, 0.0, 0.0)",0,0,0,,-0.4887,0.2615,0.5019,"(0.0, 0.0, 0.0, 0.0, 0.0, 0.0, 0.0, 0.0, 0.0)","b'$VNYMR,-151.535,+006.593,+001.602,-00.4887,+00.2615,+00.5019,+01.072,-00.217,-09.780,+00.000144,-00.000392,-00.000325*61\r\n'"
1679683301.5099092,13718,1679683301,471712589,IMU1_Frame,0,0,0,,0.05917226788735235,0.0006179320514562003,-0.9677727521522342,0.24477369357170972,"(0.0, 0.0, 0.0, 0.0, 0.0, 0.0, 0.0, 0.0, 0.0)",-0.001621,-0.001489,0.00015,"(0.0, 0.0, 0.0, 0.0, 0.0, 0.0, 0.0, 0.0, 0.0)",1.283,-0.154,-9.819,"(0.0, 0.0, 0.0, 0.0, 0.0, 0.0, 0.0, 0.0, 0.0)",0,0,0,,-0.4887,0.2649,0.5082,"(0.0, 0.0, 0.0, 0.0, 0.0, 0.0, 0.0, 0.0, 0.0)","b'$VNYMR,-151.520,+006.594,+001.602,-00.4887,+00.2649,+00.5082,+01.283,-00.154,-09.819,-00.001621,-00.001489,+00.000158*6F\r\n'"
1679683301.5099487,13719,1679683301,496645689,IMU1_Frame,0,0,0,,0.0591806445845385,0.0006262790920698435,-0.9677466577360915,0.24487479560314424,"(0.0, 0.0, 0.0, 0.0, 0.0, 0.0, 0.0, 0.0, 0.0)",-0.00103,0.001399,0.00144,"(0.0, 0.0, 0.0, 0.0, 0.0, 0.0, 0.0, 0.0, 0.0)",1.124,-0.375,-9.6,"(0.0, 0.0, 0.0, 0.0, 0.0, 0.0, 0.0, 0.0, 0.0)",0,0,0,,-0.4855,0.2615,0.5058,"(0.0, 0.0, 0.0, 0.0, 0.0, 0.0, 0.0, 0.0, 0.0)","b'$VNYMR,-151.508,+006.595,+001.602,-00.4855,+00.2615,+00.5058,+01.124,-00.375,-09.600,-00.001030,+00.001399,+00.001443*64\r\n'"
1679683301.5539422,13720,1679683301,521599769,IMU1_Frame,0,0,0,,0.059184838171106646,0.0006171360089378599,-0.9677146063278026,0.24500043831314333,"(0.0, 0.0, 0.0, 0.0, 0.0, 0.0, 0.0, 0.0, 0.0)",0.000962,0.000752,0.00177,"(0.0, 0.0, 0.0, 0.0, 0.0, 0.0, 0.0, 0.0, 0.0)",1.063,-0.167,-9.828,"(0.0, 0.0, 0.0, 0.0, 0.0, 0.0, 0.0, 0.0, 0.0)",0,0,0,,-0.4855,0.2648,0.5058,"(0.0, 0.0, 0.0, 0.0, 0.0, 0.0, 0.0, 0.0, 0.0)","b'$VNYMR,-151.493,+006.595,+001.604,-00.4855,+00.2648,+00.5058,+01.063,-00.167,-09.828,+00.000962,+00.000752,+00.001771*67\r\n'"
1679683301.5574539,13721,1679683301,546612501,IMU1_Frame,0,0,0,,0.05918690139364453,0.0006159221545667566,-0.96768467206726,0.24511814863326192,"(0.0, 0.0, 0.0, 0.0, 0.0, 0.0, 0.0, 0.0, 0.0)",0.000627,-0.002198,0.00207,"(0.0, 0.0, 0.0, 0.0, 0.0, 0.0, 0.0, 0.0, 0.0)",1.234,-0.292,-9.879,"(0.0, 0.0, 0.0, 0.0, 0.0, 0.0, 0.0, 0.0, 0.0)",0,0,0,,-0.4887,0.2615,0.5044,"(0.0, 0.0, 0.0, 0.0, 0.0, 0.0, 0.0, 0.0, 0.0)","b'$VNYMR,-151.479,+006.595,+001.605,-00.4887,+00.2615,+00.5044,+01.234,-00.292,-09.879,+00.000627,-00.002198,+00.002070*6A\r\n'"
1679683301.5979135,13722,1679683301,571663618,IMU1_Frame,0,0,0,,0.059176250180666586,0.0006289274501516118,-0.9676573089403554,0.24522868575908327,"(0.0, 0.0, 0.0, 0.0, 0.0, 0.0, 0.0, 0.0, 0.0)",-0.000521,-0.001213,-0.00058,"(0.0, 0.0, 0.0, 0.0, 0.0, 0.0, 0.0, 0.0, 0.0)",1.132,-0.469,-9.453,"(0.0, 0.0, 0.0, 0.0, 0.0, 0.0, 0.0, 0.0, 0.0)",0,0,0,,-0.4876,0.2648,0.5095,"(0.0, 0.0, 0.0, 0.0, 0.0, 0.0, 0.0, 0.0, 0.0)","b'$VNYMR,-151.466,+006.594,+001.604,-00.4876,+00.2648,+00.5095,+01.132,-00.469,-09.453,-00.000521,-00.001213,-00.000587*64\r\n'"
1679683301.6462758,13723,1679683301,596718311,IMU1_Frame,0,0,0,,0.05916987327690406,0.0006255583709728254,-0.9676278031177814,0.24534663112946112,"(0.0, 0.0, 0.0, 0.0, 0.0, 0.0, 0.0, 0.0, 0.0)",0.001727,0.0014,0.00057,"(0.0, 0.0, 0.0, 0.0, 0.0, 0.0, 0.0, 0.0, 0.0)",1.044,-0.044,-9.82,"(0.0, 0.0, 0.0, 0.0, 0.0, 0.0, 0.0, 0.0, 0.0)",0,0,0,,-0.4876,0.2648,0.5095,"(0.0, 0.0, 0.0, 0.0, 0.0, 0.0, 0.0, 0.0, 0.0)","b'$VNYMR,-151.452,+006.593,+001.605,-00.4876,+00.2648,+00.5095,+01.044,-00.044,-09.820,+00.001727,+00.001400,+00.000578*61\r\n'"
1679683301.64633,13724,1679683301,621613740,IMU1_Frame,0,0,0,,0.059193103454623204,0.0006117671158615695,-0.9675969250430675,0.2454628136635092,"(0.0, 0.0, 0.0, 0.0, 0.0, 0.0, 0.0, 0.0, 0.0)",0.001435,0.001509,0.0018,"(0.0, 0.0, 0.0, 0.0, 0.0, 0.0, 0.0, 0.0, 0.0)",1.133,-0.297,-9.882,"(0.0, 0.0, 0.0, 0.0, 0.0, 0.0, 0.0, 0.0, 0.0)",0,0,0,,-0.4865,0.2682,0.507,"(0.0, 0.0, 0.0, 0.0, 0.0, 0.0, 0.0, 0.0, 0.0)","b'$VNYMR,-151.438,+006.595,+001.608,-00.4865,+00.2682,+00.5070,+01.133,-00.297,-09.882,+00.001435,+00.001509,+00.001808*6F\r\n'"
1679683301.6899865,13725,1679683301,646804332,IMU1_Frame,0,0,0,,0.05918244502833796,0.0006252857813722305,-0.9675673796404258,0.24558178489847168,"(0.0, 0.0, 0.0, 0.0, 0.0, 0.0, 0.0, 0.0, 0.0)",-0.001306,-0.002074,-0.00097,"(0.0, 0.0, 0.0, 0.0, 0.0, 0.0, 0.0, 0.0, 0.0)",1.094,-0.398,-9.455,"(0.0, 0.0, 0.0, 0.0, 0.0, 0.0, 0.0, 0.0, 0.0)",0,0,0,,-0.4918,0.2661,0.5069,"(0.0, 0.0, 0.0, 0.0, 0.0, 0.0, 0.0, 0.0, 0.0)","b'$VNYMR,-151.424,+006.594,+001.607,-00.4918,+00.2661,+00.5069,+01.094,-00.398,-09.455,-00.001306,-00.002074,-00.000978*6C\r\n'"
1679683301.690044,13726,1679683301,672382831,IMU1_Frame,0,0,0,,0.05920140303497541,0.000627355222968598,-0.9675407501649501,0.24568210572681157,"(0.0, 0.0, 0.0, 0.0, 0.0, 0.0, 0.0, 0.0, 0.0)",0.003789,2e-05,0.00085,"(0.0, 0.0, 0.0, 0.0, 0.0, 0.0, 0.0, 0.0, 0.0)",1.09,0.028,-9.999,"(0.0, 0.0, 0.0, 0.0, 0.0, 0.0, 0.0, 0.0, 0.0)",0,0,0,,-0.4886,0.2671,0.5095,"(0.0, 0.0, 0.0, 0.0, 0.0, 0.0, 0.0, 0.0, 0.0)","b'$VNYMR,-151.412,+006.596,+001.608,-00.4886,+00.2671,+00.5095,+01.090,+00.028,-09.999,+00.003789,+00.000020,+00.000856*6E\r\n'"
1679683301.7338853,13727,1679683301,696556568,IMU1_Frame,0,0,0,,0.05922047499842694,0.0005960814875736881,-0.9675038625093999,0.24582281435459352,"(0.0, 0.0, 0.0, 0.0, 0.0, 0.0, 0.0, 0.0, 0.0)",0.001948,-0.000818,0.00127,"(0.0, 0.0, 0.0, 0.0, 0.0, 0.0, 0.0, 0.0, 0.0)",1.169,-0.436,-9.669,"(0.0, 0.0, 0.0, 0.0, 0.0, 0.0, 0.0, 0.0, 0.0)",0,0,0,,-0.479,0.2713,0.5135,"(0.0, 0.0, 0.0, 0.0, 0.0, 0.0, 0.0, 0.0, 0.0)","b'$VNYMR,-151.395,+006.597,+001.613,-00.4790,+00.2713,+00.5135,+01.169,-00.436,-09.669,+00.001948,-00.000818,+00.001271*6B\r\n'"
1679683301.7339425,13728,1679683301,722345113,IMU1_Frame,0,0,0,,0.059232976948705905,0.0006255559006878714,-0.9674686064742927,0.2459584489467666,"(0.0, 0.0, 0.0, 0.0, 0.0, 0.0, 0.0, 0.0, 0.0)",-0.002144,0.004479,0.00164,"(0.0, 0.0, 0.0, 0.0, 0.0, 0.0, 0.0, 0.0, 0.0)",1.138,-0.126,-9.839,"(0.0, 0.0, 0.0, 0.0, 0.0, 0.0, 0.0, 0.0, 0.0)",0,0,0,,-0.479,0.2713,0.5109,"(0.0, 0.0, 0.0, 0.0, 0.0, 0.0, 0.0, 0.0, 0.0)","b'$VNYMR,-151.379,+006.599,+001.611,-00.4790,+00.2713,+00.5109,+01.138,-00.126,-09.839,-00.002144,+00.004479,+00.001647*68\r\n'"
1679683301.7780008,13729,1679683301,746575832,IMU1_Frame,0,0,0,,0.059232894556159696,0.0006333094738577103,-0.9674364023000488,0.2460850881836341,"(0.0, 0.0, 0.0, 0.0, 0.0, 0.0, 0.0, 0.0, 0.0)",0.001446,-0.00206,-0.00055,"(0.0, 0.0, 0.0, 0.0, 0.0, 0.0, 0.0, 0.0, 0.0)",1.201,-0.447,-9.904,"(0.0, 0.0, 0.0, 0.0, 0.0, 0.0, 0.0, 0.0, 0.0)",0,0,0,,-0.4876,0.266,0.507,"(0.0, 0.0, 0.0, 0.0, 0.0, 0.0, 0.0, 0.0, 0.0)","b'$VNYMR,-151.364,+006.599,+001.611,-00.4876,+00.2660,+00.5070,+01.201,-00.447,-09.904,+00.001446,-00.002060,-00.000550*61\r\n'"
1679683301.7838657,13730,1679683301,772330045,IMU1_Frame,0,0,0,,0.059247701017435254,0.0006173817172759593,-0.9674058902757752,0.24620148704607508,"(0.0, 0.0, 0.0, 0.0, 0.0, 0.0, 0.0, 0.0, 0.0)",0.002435,-0.000271,0.00095,"(0.0, 0.0, 0.0, 0.0, 0.0, 0.0, 0.0, 0.0, 0.0)",1.056,-0.144,-9.554,"(0.0, 0.0, 0.0, 0.0, 0.0, 0.0, 0.0, 0.0, 0.0)",0,0,0,,-0.4876,0.2671,0.5082,"(0.0, 0.0, 0.0, 0.0, 0.0, 0.0, 0.0, 0.0, 0.0)","b'$VNYMR,-151.350,+006.600,+001.614,-00.4876,+00.2671,+00.5082,+01.056,-00.144,-09.554,+00.002435,-00.000271,+00.000957*68\r\n'"
1679683301.8300166,13731,1679683301,796540498,IMU1_Frame,0,0,0,,0.059264491039969835,0.0006299810544913142,-0.9673705919262144,0.2463360734889836,"(0.0, 0.0, 0.0, 0.0, 0.0, 0.0, 0.0, 0.0, 0.0)",-0.001477,0.000969,0.00082,"(0.0, 0.0, 0.0, 0.0, 0.0, 0.0, 0.0, 0.0, 0.0)",1.217,-0.238,-9.661,"(0.0, 0.0, 0.0, 0.0, 0.0, 0.0, 0.0, 0.0, 0.0)",0,0,0,,-0.4844,0.2681,0.5096,"(0.0, 0.0, 0.0, 0.0, 0.0, 0.0, 0.0, 0.0, 0.0)","b'$VNYMR,-151.334,+006.602,+001.614,-00.4844,+00.2681,+00.5096,+01.217,-00.238,-09.661,-00.001477,+00.000969,+00.000821*6E\r\n'"
1679683301.8739216,13732,1679683301,822287559,IMU1_Frame,0,0,0,,0.05927069538634835,0.0006483448745878435,-0.9673378762686471,0.24646297379810622,"(0.0, 0.0, 0.0, 0.0, 0.0, 0.0, 0.0, 0.0, 0.0)",6.3e-05,5.5e-05,0.00101,"(0.0, 0.0, 0.0, 0.0, 0.0, 0.0, 0.0, 0.0, 0.0)",1.243,-0.522,-9.984,"(0.0, 0.0, 0.0, 0.0, 0.0, 0.0, 0.0, 0.0, 0.0)",0,0,0,,-0.4865,0.2659,0.507,"(0.0, 0.0, 0.0, 0.0, 0.0, 0.0, 0.0, 0.0, 0.0)","b'$VNYMR,-151.319,+006.603,+001.613,-00.4865,+00.2659,+00.5070,+01.243,-00.522,-09.984,+00.000063,+00.000055,+00.001014*6F\r\n'"
1679683301.8739638,13733,1679683301,846482038,IMU1_Frame,0,0,0,,0.059270604282570284,0.0006566206185165402,-0.9673034541163678,0.24659803724256701,"(0.0, 0.0, 0.0, 0.0, 0.0, 0.0, 0.0, 0.0, 0.0)",0.000246,0.001326,-0.00013,"(0.0, 0.0, 0.0, 0.0, 0.0, 0.0, 0.0, 0.0, 0.0)",0.897,-0.044,-9.631,"(0.0, 0.0, 0.0, 0.0, 0.0, 0.0, 0.0, 0.0, 0.0)",0,0,0,,-0.4898,0.2616,0.5108,"(0.0, 0.0, 0.0, 0.0, 0.0, 0.0, 0.0, 0.0, 0.0)","b'$VNYMR,-151.303,+006.603,+001.613,-00.4898,+00.2616,+00.5108,+00.897,-00.044,-09.631,+00.000246,+00.001326,-00.000130*66\r\n'"
1679683301.9181266,13734,1679683301,872337341,IMU1_Frame,0,0,0,,0.05927486341463517,0.0006438761559638944,-0.9672862473534916,0.2466645326581677,"(0.0, 0.0, 0.0, 0.0, 0.0, 0.0, 0.0, 0.0, 0.0)",0.000982,-0.000745,0.00141,"(0.0, 0.0, 0.0, 0.0, 0.0, 0.0, 0.0, 0.0, 0.0)",1.07,-0.249,-9.632,"(0.0, 0.0, 0.0, 0.0, 0.0, 0.0, 0.0, 0.0, 0.0)",0,0,0,,-0.4898,0.2627,0.5057,"(0.0, 0.0, 0.0, 0.0, 0.0, 0.0, 0.0, 0.0, 0.0)","b'$VNYMR,-151.295,+006.603,+001.615,-00.4898,+00.2627,+00.5057,+01.070,-00.249,-09.632,+00.000982,-00.000745,+00.001411*6F\r\n'"
1679683301.9181767,13735,1679683301,896430015,IMU1_Frame,0,0,0,,0.05927478430794727,0.0006511179418523302,-0.9672561043768871,0.246782707125764,"(0.0, 0.0, 0.0, 0.0, 0.0, 0.0, 0.0, 0.0, 0.0)",-3.7e-05,-0.00298,-0.0002,"(0.0, 0.0, 0.0, 0.0, 0.0, 0.0, 0.0, 0.0, 0.0)",1.293,-0.425,-9.579,"(0.0, 0.0, 0.0, 0.0, 0.0, 0.0, 0.0, 0.0, 0.0)",0,0,0,,-0.4896,0.2705,0.5069,"(0.0, 0.0, 0.0, 0.0, 0.0, 0.0, 0.0, 0.0, 0.0)","b'$VNYMR,-151.281,+006.603,+001.615,-00.4896,+00.2705,+00.5069,+01.293,-00.425,-09.579,-00.000037,-00.002980,-00.000202*60\r\n'"
1679683301.9620204,13736,1679683301,922240495,IMU1_Frame,0,0,0,,0.05929158433614838,0.0006621789795092214,-0.9672271887117571,0.24689194997540867,"(0.0, 0.0, 0.0, 0.0, 0.0, 0.0, 0.0, 0.0, 0.0)",-0.000241,0.000294,-0.00144,"(0.0, 0.0, 0.0, 0.0, 0.0, 0.0, 0.0, 0.0, 0.0)",1.448,-0.268,-9.971,"(0.0, 0.0, 0.0, 0.0, 0.0, 0.0, 0.0, 0.0, 0.0)",0,0,0,,-0.4866,0.2626,0.5058,"(0.0, 0.0, 0.0, 0.0, 0.0, 0.0, 0.0, 0.0, 0.0)","b'$VNYMR,-151.268,+006.605,+001.615,-00.4866,+00.2626,+00.5058,+01.448,-00.268,-09.971,-00.000241,+00.000294,-00.001444*6B\r\n'"
1679683301.962072,13737,1679683301,947228670,IMU1_Frame,0,0,0,,0.05928739426359192,0.0006488205912379141,-0.9672039522298318,0.2469840049563269,"(0.0, 0.0, 0.0, 0.0, 0.0, 0.0, 0.0, 0.0, 0.0)",-0.001206,0.002447,-0.00033,"(0.0, 0.0, 0.0, 0.0, 0.0, 0.0, 0.0, 0.0, 0.0)",1.126,-0.191,-9.994,"(0.0, 0.0, 0.0, 0.0, 0.0, 0.0, 0.0, 0.0, 0.0)",0,0,0,,-0.4748,0.269,0.506,"(0.0, 0.0, 0.0, 0.0, 0.0, 0.0, 0.0, 0.0, 0.0)","b'$VNYMR,-151.257,+006.604,+001.617,-00.4748,+00.2690,+00.5060,+01.126,-00.191,-09.994,-00.001206,+00.002447,-00.000332*6D\r\n'"
1679683302.005994,13738,1679683301,972239732,IMU1_Frame,0,0,0,,0.059295733958443286,0.0006597863809629546,-0.9671668444170212,0.24712724592137258,"(0.0, 0.0, 0.0, 0.0, 0.0, 0.0, 0.0, 0.0, 0.0)",-0.001852,0.004376,0.00039,"(0.0, 0.0, 0.0, 0.0, 0.0, 0.0, 0.0, 0.0, 0.0)",1.072,-0.298,-9.93,"(0.0, 0.0, 0.0, 0.0, 0.0, 0.0, 0.0, 0.0, 0.0)",0,0,0,,-0.4801,0.2702,0.5096,"(0.0, 0.0, 0.0, 0.0, 0.0, 0.0, 0.0, 0.0, 0.0)","b'$VNYMR,-151.240,+006.605,+001.617,-00.4801,+00.2702,+00.5096,+01.072,-00.298,-09.930,-00.001852,+00.004376,+00.000394*6D\r\n'"
1679683302.0080314,13739,1679683301,997132778,IMU1_Frame,0,0,0,,0.059297804779189583,0.0006591083281315205,-0.9671344930388278,0.24725332818611434,"(0.0, 0.0, 0.0, 0.0, 0.0, 0.0, 0.0, 0.0, 0.0)",0.002469,0.002516,-0.0003,"(0.0, 0.0, 0.0, 0.0, 0.0, 0.0, 0.0, 0.0, 0.0)",0.885,-0.3,-9.851,"(0.0, 0.0, 0.0, 0.0, 0.0, 0.0, 0.0, 0.0, 0.0)",0,0,0,,-0.4854,0.2737,0.512,"(0.0, 0.0, 0.0, 0.0, 0.0, 0.0, 0.0, 0.0, 0.0)","b'$VNYMR,-151.225,+006.605,+001.618,-00.4854,+00.2737,+00.5120,+00.885,-00.300,-09.851,+00.002469,+00.002516,-00.000300*60\r\n'"
1679683302.0498946,13740,1679683302,22199630,IMU1_Frame,0,0,0,,0.059310443089101474,0.0006547517329938673,-0.9670908797020109,0.24742084196351183,"(0.0, 0.0, 0.0, 0.0, 0.0, 0.0, 0.0, 0.0, 0.0)",0.002452,0.002264,0.00071,"(0.0, 0.0, 0.0, 0.0, 0.0, 0.0, 0.0, 0.0, 0.0)",0.797,-0.151,-9.815,"(0.0, 0.0, 0.0, 0.0, 0.0, 0.0, 0.0, 0.0, 0.0)",0,0,0,,-0.4875,0.2704,0.5107,"(0.0, 0.0, 0.0, 0.0, 0.0, 0.0, 0.0, 0.0, 0.0)","b'$VNYMR,-151.205,+006.606,+001.620,-00.4875,+00.2704,+00.5107,+00.797,-00.151,-09.815,+00.002452,+00.002264,+00.000717*68\r\n'"
1679683302.0940456,13741,1679683302,47160625,IMU1_Frame,0,0,0,,0.05931879251268912,0.0006646894739070121,-0.9670580277654943,0.24754718737455347,"(0.0, 0.0, 0.0, 0.0, 0.0, 0.0, 0.0, 0.0, 0.0)",0.000173,0.000657,0.00031,"(0.0, 0.0, 0.0, 0.0, 0.0, 0.0, 0.0, 0.0, 0.0)",0.927,-0.243,-9.89,"(0.0, 0.0, 0.0, 0.0, 0.0, 0.0, 0.0, 0.0, 0.0)",0,0,0,,-0.4887,0.2649,0.5108,"(0.0, 0.0, 0.0, 0.0, 0.0, 0.0, 0.0, 0.0, 0.0)","b'$VNYMR,-151.190,+006.607,+001.620,-00.4887,+00.2649,+00.5108,+00.927,-00.243,-09.890,+00.000173,+00.000657,+00.000315*60\r\n'"
1679683302.094099,13742,1679683302,72222948,IMU1_Frame,0,0,0,,0.05933772537168319,0.0006694012998739955,-0.9670203858119159,0.24768964385655662,"(0.0, 0.0, 0.0, 0.0, 0.0, 0.0, 0.0, 0.0, 0.0)",0.000591,0.003301,0.00088,"(0.0, 0.0, 0.0, 0.0, 0.0, 0.0, 0.0, 0.0, 0.0)",0.909,-0.277,-10.068,"(0.0, 0.0, 0.0, 0.0, 0.0, 0.0, 0.0, 0.0, 0.0)",0,0,0,,-0.4896,0.2749,0.5119,"(0.0, 0.0, 0.0, 0.0, 0.0, 0.0, 0.0, 0.0, 0.0)","b'$VNYMR,-151.173,+006.609,+001.621,-00.4896,+00.2749,+00.5119,+00.909,-00.277,-10.068,+00.000591,+00.003301,+00.000884*61\r\n'"
1679683302.1380465,13743,1679683302,97103595,IMU1_Frame,0,0,0,,0.05935038587875507,0.0006635037152902135,-0.9669831849317856,0.24783182103604692,"(0.0, 0.0, 0.0, 0.0, 0.0, 0.0, 0.0, 0.0, 0.0)",-0.001121,0.004263,0.00131,"(0.0, 0.0, 0.0, 0.0, 0.0, 0.0, 0.0, 0.0, 0.0)",0.989,-0.184,-9.911,"(0.0, 0.0, 0.0, 0.0, 0.0, 0.0, 0.0, 0.0, 0.0)",0,0,0,,-0.4865,0.2693,0.512,"(0.0, 0.0, 0.0, 0.0, 0.0, 0.0, 0.0, 0.0, 0.0)","b'$VNYMR,-151.156,+006.610,+001.623,-00.4865,+00.2693,+00.5120,+00.989,-00.184,-09.911,-00.001121,+00.004263,+00.001310*69\r\n'"
1679683302.1380916,13744,1679683302,122165679,IMU1_Frame,0,0,0,,0.05935872732226733,0.0006739683059366515,-0.9669481151862551,0.24796659007848645,"(0.0, 0.0, 0.0, 0.0, 0.0, 0.0, 0.0, 0.0, 0.0)",-0.001299,0.00381,0.00082,"(0.0, 0.0, 0.0, 0.0, 0.0, 0.0, 0.0, 0.0, 0.0)",1.013,-0.141,-9.864,"(0.0, 0.0, 0.0, 0.0, 0.0, 0.0, 0.0, 0.0, 0.0)",0,0,0,,-0.4865,0.267,0.5083,"(0.0, 0.0, 0.0, 0.0, 0.0, 0.0, 0.0, 0.0, 0.0)","b'$VNYMR,-151.140,+006.611,+001.623,-00.4865,+00.2670,+00.5083,+01.013,-00.141,-09.864,-00.001299,+00.003810,+00.000829*62\r\n'"
1679683302.1819727,13745,1679683302,147072076,IMU1_Frame,0,0,0,,0.059358644538503876,0.0006812203375096519,-0.9669178131358515,0.24808472322572786,"(0.0, 0.0, 0.0, 0.0, 0.0, 0.0, 0.0, 0.0, 0.0)",-0.000225,0.003127,-0.00036,"(0.0, 0.0, 0.0, 0.0, 0.0, 0.0, 0.0, 0.0, 0.0)",1.015,-0.149,-10.065,"(0.0, 0.0, 0.0, 0.0, 0.0, 0.0, 0.0, 0.0, 0.0)",0,0,0,,-0.4855,0.267,0.5108,"(0.0, 0.0, 0.0, 0.0, 0.0, 0.0, 0.0, 0.0, 0.0)","b'$VNYMR,-151.126,+006.611,+001.623,-00.4855,+00.2670,+00.5108,+01.015,-00.149,-10.065,-00.000225,+00.003127,-00.000367*60\r\n'"
1679683302.1829438,13746,1679683302,172130823,IMU1_Frame,0,0,0,,0.059371321058090606,0.0006742948898406185,-0.9668848860723775,0.2482100091596309,"(0.0, 0.0, 0.0, 0.0, 0.0, 0.0, 0.0, 0.0, 0.0)",-0.000834,0.003077,-0.00131,"(0.0, 0.0, 0.0, 0.0, 0.0, 0.0, 0.0, 0.0, 0.0)",1.11,-0.127,-9.895,"(0.0, 0.0, 0.0, 0.0, 0.0, 0.0, 0.0, 0.0, 0.0)",0,0,0,,-0.4855,0.267,0.5108,"(0.0, 0.0, 0.0, 0.0, 0.0, 0.0, 0.0, 0.0, 0.0)","b'$VNYMR,-151.111,+006.612,+001.625,-00.4855,+00.2670,+00.5108,+01.110,-00.127,-09.895,-00.000834,+00.003077,-00.001318*65\r\n'"
1679683302.2259662,13747,1679683302,197103261,IMU1_Frame,0,0,0,,0.05937339354681222,0.0006741473236284729,-0.966850225912221,0.24834449121655278,"(0.0, 0.0, 0.0, 0.0, 0.0, 0.0, 0.0, 0.0, 0.0)",0.001085,0.000128,-0.00292,"(0.0, 0.0, 0.0, 0.0, 0.0, 0.0, 0.0, 0.0, 0.0)",1.29,-0.13,-9.754,"(0.0, 0.0, 0.0, 0.0, 0.0, 0.0, 0.0, 0.0, 0.0)",0,0,0,,-0.4897,0.2671,0.5069,"(0.0, 0.0, 0.0, 0.0, 0.0, 0.0, 0.0, 0.0, 0.0)","b'$VNYMR,-151.095,+006.612,+001.626,-00.4897,+00.2671,+00.5069,+01.290,-00.130,-09.754,+00.001085,+00.000128,-00.002929*6B\r\n'"
1679683302.2701097,13748,1679683302,222107410,IMU1_Frame,0,0,0,,0.05938392428328469,0.0006741096853075043,-0.9668237635182886,0.24844497461043838,"(0.0, 0.0, 0.0, 0.0, 0.0, 0.0, 0.0, 0.0, 0.0)",0.001748,-0.000378,-0.00398,"(0.0, 0.0, 0.0, 0.0, 0.0, 0.0, 0.0, 0.0, 0.0)",1.39,-0.269,-9.642,"(0.0, 0.0, 0.0, 0.0, 0.0, 0.0, 0.0, 0.0, 0.0)",0,0,0,,-0.4896,0.2738,0.5132,"(0.0, 0.0, 0.0, 0.0, 0.0, 0.0, 0.0, 0.0, 0.0)","b'$VNYMR,-151.083,+006.613,+001.627,-00.4896,+00.2738,+00.5132,+01.390,-00.269,-09.642,+00.001748,-00.000378,-00.003989*6A\r\n'"
1679683302.2701523,13749,1679683302,247102975,IMU1_Frame,0,0,0,,0.05938600472731606,0.0006734461718901682,-0.9667912397778615,0.24857101118506642,"(0.0, 0.0, 0.0, 0.0, 0.0, 0.0, 0.0, 0.0, 0.0)",0.001747,0.000301,-0.00234,"(0.0, 0.0, 0.0, 0.0, 0.0, 0.0, 0.0, 0.0, 0.0)",1.315,-0.319,-9.626,"(0.0, 0.0, 0.0, 0.0, 0.0, 0.0, 0.0, 0.0, 0.0)",0,0,0,,-0.4907,0.2705,0.5081,"(0.0, 0.0, 0.0, 0.0, 0.0, 0.0, 0.0, 0.0, 0.0)","b'$VNYMR,-151.068,+006.613,+001.628,-00.4907,+00.2705,+00.5081,+01.315,-00.319,-09.626,+00.001747,+00.000301,-00.002348*66\r\n'"
1679683302.313992,13750,1679683302,272107601,IMU1_Frame,0,0,0,,0.05939434904920915,0.0006834039187875365,-0.9667582372167147,0.2486973160967661,"(0.0, 0.0, 0.0, 0.0, 0.0, 0.0, 0.0, 0.0, 0.0)",0.002426,0.001132,-0.00057,"(0.0, 0.0, 0.0, 0.0, 0.0, 0.0, 0.0, 0.0, 0.0)",1.095,-0.387,-9.688,"(0.0, 0.0, 0.0, 0.0, 0.0, 0.0, 0.0, 0.0, 0.0)",0,0,0,,-0.4865,0.2693,0.507,"(0.0, 0.0, 0.0, 0.0, 0.0, 0.0, 0.0, 0.0, 0.0)","b'$VNYMR,-151.053,+006.614,+001.628,-00.4865,+00.2693,+00.5070,+01.095,-00.387,-09.688,+00.002426,+00.001132,-00.000575*6A\r\n'"
1679683302.3140922,13751,1679683302,297013282,IMU1_Frame,0,0,0,,0.0594133018518202,0.0006865943643784862,-0.9667269389421258,0.24881441613144262,"(0.0, 0.0, 0.0, 0.0, 0.0, 0.0, 0.0, 0.0, 0.0)",0.00055,0.001353,0.00213,"(0.0, 0.0, 0.0, 0.0, 0.0, 0.0, 0.0, 0.0, 0.0)",1.152,-0.503,-9.772,"(0.0, 0.0, 0.0, 0.0, 0.0, 0.0, 0.0, 0.0, 0.0)",0,0,0,,-0.4876,0.2637,0.507,"(0.0, 0.0, 0.0, 0.0, 0.0, 0.0, 0.0, 0.0, 0.0)","b'$VNYMR,-151.039,+006.616,+001.629,-00.4876,+00.2637,+00.5070,+01.152,-00.503,-09.772,+00.000550,+00.001353,+00.002134*6F\r\n'"
1679683302.3579085,13752,1679683302,322018146,IMU1_Frame,0,0,0,,0.05942383429354836,0.0006865661143811291,-0.9667004273298575,0.24891488574429307,"(0.0, 0.0, 0.0, 0.0, 0.0, 0.0, 0.0, 0.0, 0.0)",-0.001215,0.004044,0.00668,"(0.0, 0.0, 0.0, 0.0, 0.0, 0.0, 0.0, 0.0, 0.0)",1.138,-0.279,-9.948,"(0.0, 0.0, 0.0, 0.0, 0.0, 0.0, 0.0, 0.0, 0.0)",0,0,0,,-0.4886,0.2693,0.5133,"(0.0, 0.0, 0.0, 0.0, 0.0, 0.0, 0.0, 0.0, 0.0)","b'$VNYMR,-151.027,+006.617,+001.630,-00.4886,+00.2693,+00.5133,+01.138,-00.279,-09.948,-00.001215,+00.004044,+00.006682*60\r\n'"
1679683302.3579316,13753,1679683302,347116708,IMU1_Frame,0,0,0,,0.05942592319072243,0.0006853903129285157,-0.9666700154430978,0.24903247004414927,"(0.0, 0.0, 0.0, 0.0, 0.0, 0.0, 0.0, 0.0, 0.0)",0.001337,0.000924,0.00484,"(0.0, 0.0, 0.0, 0.0, 0.0, 0.0, 0.0, 0.0, 0.0)",1.207,-0.036,-9.982,"(0.0, 0.0, 0.0, 0.0, 0.0, 0.0, 0.0, 0.0, 0.0)",0,0,0,,-0.4865,0.2704,0.512,"(0.0, 0.0, 0.0, 0.0, 0.0, 0.0, 0.0, 0.0, 0.0)","b'$VNYMR,-151.013,+006.617,+001.631,-00.4865,+00.2704,+00.5120,+01.207,-00.036,-09.982,+00.001337,+00.000924,+00.004847*6F\r\n'"
1679683302.4019775,13754,1679683302,372014999,IMU1_Frame,0,0,0,,0.059421743804199165,0.0006746284792982678,-0.9666357029022552,0.24916664928185334,"(0.0, 0.0, 0.0, 0.0, 0.0, 0.0, 0.0, 0.0, 0.0)",0.001792,-0.005294,-0.00121,"(0.0, 0.0, 0.0, 0.0, 0.0, 0.0, 0.0, 0.0, 0.0)",1.281,-0.002,-9.813,"(0.0, 0.0, 0.0, 0.0, 0.0, 0.0, 0.0, 0.0, 0.0)",0,0,0,,-0.4759,0.2668,0.5072,"(0.0, 0.0, 0.0, 0.0, 0.0, 0.0, 0.0, 0.0, 0.0)","b'$VNYMR,-150.997,+006.616,+001.633,-00.4759,+00.2668,+00.5072,+01.281,-00.002,-09.813,+00.001792,-00.005294,-00.001214*62\r\n'"
1679683302.4075682,13755,1679683302,397031307,IMU1_Frame,0,0,0,,0.0594238481017497,0.0006724158459282537,-0.9666096108363738,0.24926735520814694,"(0.0, 0.0, 0.0, 0.0, 0.0, 0.0, 0.0, 0.0, 0.0)",0.003217,-0.005249,-0.00441,"(0.0, 0.0, 0.0, 0.0, 0.0, 0.0, 0.0, 0.0, 0.0)",1.348,-0.17,-9.596,"(0.0, 0.0, 0.0, 0.0, 0.0, 0.0, 0.0, 0.0, 0.0)",0,0,0,,-0.4833,0.2692,0.5108,"(0.0, 0.0, 0.0, 0.0, 0.0, 0.0, 0.0, 0.0, 0.0)","b'$VNYMR,-150.985,+006.616,+001.634,-00.4833,+00.2692,+00.5108,+01.348,-00.170,-09.596,+00.003217,-00.005249,-00.004414*65\r\n'"
1679683302.4499474,13756,1679683302,421980857,IMU1_Frame,0,0,0,,0.05943437906887391,0.0006729123809105248,-0.966580875699383,0.2493762468757579,"(0.0, 0.0, 0.0, 0.0, 0.0, 0.0, 0.0, 0.0, 0.0)",0.00228,-0.002389,-0.00322,"(0.0, 0.0, 0.0, 0.0, 0.0, 0.0, 0.0, 0.0, 0.0)",1.101,-0.37,-9.604,"(0.0, 0.0, 0.0, 0.0, 0.0, 0.0, 0.0, 0.0, 0.0)",0,0,0,,-0.4875,0.2737,0.5107,"(0.0, 0.0, 0.0, 0.0, 0.0, 0.0, 0.0, 0.0, 0.0)","b'$VNYMR,-150.972,+006.617,+001.635,-00.4875,+00.2737,+00.5107,+01.101,-00.370,-09.604,+00.002280,-00.002389,-00.003229*61\r\n'"
1679683302.4979727,13757,1679683302,447026014,IMU1_Frame,0,0,0,,0.05945333002434199,0.0006766400696714241,-0.9665473172845584,0.24950175782398026,"(0.0, 0.0, 0.0, 0.0, 0.0, 0.0, 0.0, 0.0, 0.0)",4e-05,0.001537,0.00071,"(0.0, 0.0, 0.0, 0.0, 0.0, 0.0, 0.0, 0.0, 0.0)",0.881,-0.564,-9.674,"(0.0, 0.0, 0.0, 0.0, 0.0, 0.0, 0.0, 0.0, 0.0)",0,0,0,,-0.4886,0.2671,0.512,"(0.0, 0.0, 0.0, 0.0, 0.0, 0.0, 0.0, 0.0, 0.0)","b'$VNYMR,-150.957,+006.619,+001.636,-00.4886,+00.2671,+00.5120,+00.881,-00.564,-09.674,+00.000040,+00.001537,+00.000718*6D\r\n'"
1679683302.498015,13758,1679683302,472152471,IMU1_Frame,0,0,0,,0.05947010257962404,0.0006888071705602634,-0.9665137363074935,0.2496277828543523,"(0.0, 0.0, 0.0, 0.0, 0.0, 0.0, 0.0, 0.0, 0.0)",-0.001402,0.004522,0.00447,"(0.0, 0.0, 0.0, 0.0, 0.0, 0.0, 0.0, 0.0, 0.0)",0.986,-0.492,-9.821,"(0.0, 0.0, 0.0, 0.0, 0.0, 0.0, 0.0, 0.0, 0.0)",0,0,0,,-0.4918,0.2705,0.5119,"(0.0, 0.0, 0.0, 0.0, 0.0, 0.0, 0.0, 0.0, 0.0)","b'$VNYMR,-150.942,+006.621,+001.636,-00.4918,+00.2705,+00.5119,+00.986,-00.492,-09.821,-00.001402,+00.004522,+00.004471*60\r\n'"
1679683302.541933,13759,1679683302,497057676,IMU1_Frame,0,0,0,,0.05948905246070705,0.0006925445434870607,-0.9664801446846808,0.24975328416191253,"(0.0, 0.0, 0.0, 0.0, 0.0, 0.0, 0.0, 0.0, 0.0)",-0.002402,0.006495,0.00527,"(0.0, 0.0, 0.0, 0.0, 0.0, 0.0, 0.0, 0.0, 0.0)",1.071,-0.259,-9.983,"(0.0, 0.0, 0.0, 0.0, 0.0, 0.0, 0.0, 0.0, 0.0)",0,0,0,,-0.4865,0.2704,0.5146,"(0.0, 0.0, 0.0, 0.0, 0.0, 0.0, 0.0, 0.0, 0.0)","b'$VNYMR,-150.927,+006.623,+001.637,-00.4865,+00.2704,+00.5146,+01.071,-00.259,-09.983,-00.002402,+00.006495,+00.005275*67\r\n'"
1679683302.541996,13760,1679683302,522053480,IMU1_Frame,0,0,0,,0.05948270565798507,0.0006902223189027817,-0.9664457257812954,0.24988795577182393,"(0.0, 0.0, 0.0, 0.0, 0.0, 0.0, 0.0, 0.0, 0.0)",-0.000469,0.001451,0.00271,"(0.0, 0.0, 0.0, 0.0, 0.0, 0.0, 0.0, 0.0, 0.0)",1.156,-0.031,-9.968,"(0.0, 0.0, 0.0, 0.0, 0.0, 0.0, 0.0, 0.0, 0.0)",0,0,0,,-0.4875,0.2715,0.5107,"(0.0, 0.0, 0.0, 0.0, 0.0, 0.0, 0.0, 0.0, 0.0)","b'$VNYMR,-150.911,+006.622,+001.638,-00.4875,+00.2715,+00.5107,+01.156,-00.031,-09.968,-00.000469,+00.001451,+00.002712*66\r\n'"
1679683302.5860512,13761,1679683302,547005414,IMU1_Frame,0,0,0,,0.0594847845395669,0.0006906132418985581,-0.966408649585395,0.2500308090379348,"(0.0, 0.0, 0.0, 0.0, 0.0, 0.0, 0.0, 0.0, 0.0)",0.001435,-0.002882,-0.00066,"(0.0, 0.0, 0.0, 0.0, 0.0, 0.0, 0.0, 0.0, 0.0)",1.204,-0.006,-9.824,"(0.0, 0.0, 0.0, 0.0, 0.0, 0.0, 0.0, 0.0, 0.0)",0,0,0,,-0.4875,0.2737,0.5107,"(0.0, 0.0, 0.0, 0.0, 0.0, 0.0, 0.0, 0.0, 0.0)","b'$VNYMR,-150.894,+006.622,+001.639,-00.4875,+00.2737,+00.5107,+01.204,-00.006,-09.824,+00.001435,-00.002882,-00.000663*68\r\n'"
1679683302.5860991,13762,1679683302,571989059,IMU1_Frame,0,0,0,,0.059476264030409454,0.0006962027874240113,-0.9663763687630036,0.25015755678191104,"(0.0, 0.0, 0.0, 0.0, 0.0, 0.0, 0.0, 0.0, 0.0)",0.002934,-0.00582,-0.00442,"(0.0, 0.0, 0.0, 0.0, 0.0, 0.0, 0.0, 0.0, 0.0)",1.238,-0.167,-9.695,"(0.0, 0.0, 0.0, 0.0, 0.0, 0.0, 0.0, 0.0, 0.0)",0,0,0,,-0.4853,0.2759,0.5082,"(0.0, 0.0, 0.0, 0.0, 0.0, 0.0, 0.0, 0.0, 0.0)","b'$VNYMR,-150.879,+006.621,+001.639,-00.4853,+00.2759,+00.5082,+01.238,-00.167,-09.695,+00.002934,-00.005820,-00.004425*61\r\n'"
1679683302.629965,13763,1679683302,596927165,IMU1_Frame,0,0,0,,0.05947835045412397,0.0006960743138242423,-0.9663414368701879,0.2502919669015905,"(0.0, 0.0, 0.0, 0.0, 0.0, 0.0, 0.0, 0.0, 0.0)",0.003733,-0.002761,-0.0044,"(0.0, 0.0, 0.0, 0.0, 0.0, 0.0, 0.0, 0.0, 0.0)",1.208,-0.342,-9.574,"(0.0, 0.0, 0.0, 0.0, 0.0, 0.0, 0.0, 0.0, 0.0)",0,0,0,,-0.4885,0.2738,0.5107,"(0.0, 0.0, 0.0, 0.0, 0.0, 0.0, 0.0, 0.0, 0.0)","b'$VNYMR,-150.863,+006.621,+001.640,-00.4885,+00.2738,+00.5107,+01.208,-00.342,-09.574,+00.003733,-00.002761,-00.004405*69\r\n'"
1679683302.6333246,13764,1679683302,621955871,IMU1_Frame,0,0,0,,0.05948887313917422,0.0006976266487118705,-0.9663082152468124,0.2504176919393084,"(0.0, 0.0, 0.0, 0.0, 0.0, 0.0, 0.0, 0.0, 0.0)",0.00143,-0.000204,-0.00199,"(0.0, 0.0, 0.0, 0.0, 0.0, 0.0, 0.0, 0.0, 0.0)",1.13,-0.451,-9.531,"(0.0, 0.0, 0.0, 0.0, 0.0, 0.0, 0.0, 0.0, 0.0)",0,0,0,,-0.4759,0.269,0.5123,"(0.0, 0.0, 0.0, 0.0, 0.0, 0.0, 0.0, 0.0, 0.0)","b'$VNYMR,-150.848,+006.622,+001.641,-00.4759,+00.2690,+00.5123,+01.130,-00.451,-09.531,+00.001430,-00.000204,-00.001998*6F\r\n'"
1679683302.6739035,13765,1679683302,646911144,IMU1_Frame,0,0,0,,0.059499384211319103,0.000700220218586586,-0.9662706042033007,0.25056027702472594,"(0.0, 0.0, 0.0, 0.0, 0.0, 0.0, 0.0, 0.0, 0.0)",-8.9e-05,0.001826,0.00124,"(0.0, 0.0, 0.0, 0.0, 0.0, 0.0, 0.0, 0.0, 0.0)",1.104,-0.458,-9.61,"(0.0, 0.0, 0.0, 0.0, 0.0, 0.0, 0.0, 0.0, 0.0)",0,0,0,,-0.4875,0.2715,0.5107,"(0.0, 0.0, 0.0, 0.0, 0.0, 0.0, 0.0, 0.0, 0.0)","b'$VNYMR,-150.831,+006.623,+001.642,-00.4875,+00.2715,+00.5107,+01.104,-00.458,-09.610,-00.000089,+00.001826,+00.001245*67\r\n'"
1679683302.7179127,13766,1679683302,671864986,IMU1_Frame,0,0,0,,0.059507708012173824,0.0007112489038311031,-0.9662329658422885,0.2507033755890609,"(0.0, 0.0, 0.0, 0.0, 0.0, 0.0, 0.0, 0.0, 0.0)",-0.000333,0.004471,0.0049,"(0.0, 0.0, 0.0, 0.0, 0.0, 0.0, 0.0, 0.0, 0.0)",1.116,-0.433,-9.735,"(0.0, 0.0, 0.0, 0.0, 0.0, 0.0, 0.0, 0.0, 0.0)",0,0,0,,-0.4864,0.2737,0.5184,"(0.0, 0.0, 0.0, 0.0, 0.0, 0.0, 0.0, 0.0, 0.0)","b'$VNYMR,-150.814,+006.624,+001.642,-00.4864,+00.2737,+00.5184,+01.116,-00.433,-09.735,-00.000333,+00.004471,+00.004900*62\r\n'"
1679683302.7179768,13767,1679683302,696892976,IMU1_Frame,0,0,0,,0.05951821889166295,0.0007138484294218379,-0.9661953124820717,0.25084594909636404,"(0.0, 0.0, 0.0, 0.0, 0.0, 0.0, 0.0, 0.0, 0.0)",-0.000661,0.00564,0.00599,"(0.0, 0.0, 0.0, 0.0, 0.0, 0.0, 0.0, 0.0, 0.0)",1.031,-0.309,-9.863,"(0.0, 0.0, 0.0, 0.0, 0.0, 0.0, 0.0, 0.0, 0.0)",0,0,0,,-0.4842,0.2759,0.5095,"(0.0, 0.0, 0.0, 0.0, 0.0, 0.0, 0.0, 0.0, 0.0)","b'$VNYMR,-150.797,+006.625,+001.643,-00.4842,+00.2759,+00.5095,+01.031,-00.309,-09.863,-00.000661,+00.005640,+00.005994*62\r\n'"
1679683302.7620065,13768,1679683302,721937894,IMU1_Frame,0,0,0,,0.05952876150032045,0.0007138536657600569,-0.966168588496503,0.25094635994542136,"(0.0, 0.0, 0.0, 0.0, 0.0, 0.0, 0.0, 0.0, 0.0)",0.000619,0.004888,0.00434,"(0.0, 0.0, 0.0, 0.0, 0.0, 0.0, 0.0, 0.0, 0.0)",0.972,-0.076,-9.959,"(0.0, 0.0, 0.0, 0.0, 0.0, 0.0, 0.0, 0.0, 0.0)",0,0,0,,-0.4876,0.2671,0.5095,"(0.0, 0.0, 0.0, 0.0, 0.0, 0.0, 0.0, 0.0, 0.0)","b'$VNYMR,-150.785,+006.626,+001.644,-00.4876,+00.2671,+00.5095,+00.972,-00.076,-09.959,+00.000619,+00.004888,+00.004349*6C\r\n'"
